aX,aY,aZ,gX,gY,gZ
0.23,-0.89,9.08,23.63,8.64,-8.58
-0.82,-0.58,8.85,20.46,17.61,2.82
-1.28,-0.26,8.94,14.49,14.74,7.39
-1.36,-0.41,9.1,6.44,12.3,8.49
-1.26,-0.53,9.02,0.83,9.8,7.45
-1.21,-0.68,8.8,-1.98,7.24,5.5
-1.06,-0.77,8.76,-1.98,4.92,5.38
-1.2,-0.69,8.8,-2.16,-4.77,7.64
-1.47,-0.85,8.85,-2.83,-12.88,2.64
-1.72,-1.14,8.98,-1.37,-17.82,-15.84
-1.61,-0.78,9.09,1.38,-20.5,-33.46
-0.78,0.28,8.51,-1.31,-15.69,-23.09
-0.82,-0.32,8.83,-6.86,-12.27,-5.11
-0.86,-0.45,8.67,-10.58,-8.13,5.99
-1.01,-0.68,8.78,33.51,6.26,8.06
-0.94,-1.29,8.9,-3.93,-5.32,-2.12
-0.9,-0.81,9.16,-1.67,-6.6,-6.27
-1.01,-0.86,8.83,4.61,-7.58,-12.12
-0.67,-0.27,8.82,6.13,-2.64,-4.07
-0.89,-0.44,8.8,6.5,-1.72,0.26
-0.93,-0.55,8.9,4.55,-4.65,2.39
-0.95,-0.67,8.83,3.08,-3.13,-0.23
-1.01,-0.64,9.03,3.14,-0.56,-4.38
-1.03,-0.71,8.87,2.72,-1.66,-5.05
-1.01,-0.58,8.77,5.52,-3.06,-1.08
-0.96,-0.69,8.86,5.03,-4.65,0.32
-1,-0.69,8.89,4.36,-4.16,-1.08
-1.04,-0.56,8.94,2.84,-1.78,-1.33
-0.99,-0.65,8.81,-0.58,-1.42,-2.36
-0.98,-0.56,8.97,3.39,-3.55,-1.94
-0.88,-0.6,9.03,3.45,-4.77,-0.6
-1.02,-0.59,9.38,5.4,-6.17,-0.35
-0.94,-0.58,9.7,5.4,-10.02,1.05
-1.18,-0.68,10.1,3.45,-11.78,1.97
-1.15,-0.77,10.4,-1.06,-5.44,0.5
-1.2,-0.68,10.52,-7.28,2.24,-0.17
-1.41,-0.65,10.83,-13.32,4.01,-0.84
-1.32,-0.57,11.05,-16,5.65,1.42
-1.64,-0.46,11.46,-20.94,2.67,2.15
-1.51,-0.45,11.57,-30.7,3.76,0.26
-1.43,-0.56,11.31,-36.31,10.35,-1.81
-1.48,-0.61,11.37,-41.79,12.54,-3.95
-1.44,-0.69,11.24,-51.25,10.35,-7.49
-1.1,-0.54,11.22,-60.58,12.12,-7.97
-0.98,-0.81,10.82,-67.22,17.12,-8.1
-1.22,-0.98,10.89,-72.4,16.14,-7.97
-1.35,-1.12,10.65,-75.45,10.65,-8.77
-1.3,-1.48,10.11,-78.38,13.46,-12.61
-1.03,-1.57,9.97,-83.93,21.14,-13.52
-1.06,-1.92,9.82,-86.86,20.35,-11.69
-1.27,-1.9,9.75,-89.42,10.17,-8.46
-1.04,-1.93,10.09,-92.95,12.91,-6.75
-1.09,-1.82,10.65,-99.11,17.3,-2.91
-1.1,-2.17,10.28,-112.04,28.95,-5.84
-0.97,-2.62,9.99,-116.31,36.75,-7.06
-1.38,-2.4,10.85,-120.21,25.35,-3.4
-1.45,-2.29,11.26,-130.57,17.3,-0.72
-1.5,-2.31,11.25,-142.34,22.12,0.01
-1.36,-3.11,9.93,-154.72,33.76,-3.4
-1.66,-2.89,9.32,-164.66,39.86,-5.05
-1.49,-3.37,7.82,-172.22,50.29,-13.28
-1.06,-3.81,6.98,-175.88,49.74,-13.58
-1.15,-4.04,5.62,-175.57,44.43,-8.7
-0.9,-4.45,4.7,-174.05,46.75,-4.5
-1.37,-4.46,4.51,-170.57,48.58,-2.61
-1.07,-4.79,2.77,-173.07,53.34,-6.69
-1.47,-5.27,1.88,-164.23,48.64,-9.44
-1.62,-5.66,1.24,-154.23,42.36,-8.28
-1.53,-6.19,0.32,-147.65,40.29,-5.11
-1.87,-6.61,-0.35,-136.79,31.87,-1.63
-2.16,-7.05,-0.94,-122.53,25.78,-5.05
-2.01,-7.3,-1.29,-109.72,14.25,-9.19
-1.55,-7.66,-1.53,-101.79,-2.64,-6.33
-1.29,-8.3,-2.42,-92.1,-14.89,-1.39
-1.27,-8.65,-2.61,-74.78,-7.76,3.92
-0.44,-9.1,-2.87,-63.99,13.09,2.64
-1.6,-8.76,-2.65,-43.08,4.74,14.4
-2.59,-9.14,-1.66,-32.59,2.48,10.93
-2.86,-9.33,-0.52,-17.89,-11.17,9.04
-2.8,-8.99,0.28,-7.77,-25.32,10.2
-2.65,-8.85,0.66,-11.37,-27.64,10.26
-2.5,-9.13,0.4,-6.55,-14.71,8.86
-2.55,-9.34,0.16,-6.31,-2.64,8.8
-2.77,-9.52,-0.16,0.7,-0.56,10.08
-2.9,-9.46,-0.05,10.28,-6.6,11.6
-3.11,-9.34,-0.1,13.75,-8.74,12.15
-3.57,-9.34,-0.31,18.27,-10.14,10.14
-4.15,-9.43,-0.11,24.91,-18.8,9.83
-4.23,-9.19,-0.09,33.14,-32.15,6.54
-3.98,-9.22,-0.37,39.36,-34.04,2.51
-3.82,-9.17,-0.23,48.2,-31.42,-3.95
-3.54,-8.86,-0.25,51.01,-32.64,-9.62
-3.09,-8.93,-0.72,55.09,-39.04,-11.51
-3.02,-8.78,-0.73,66.44,-47.52,-8.77
-2.78,-8.67,-0.3,79.3,-52.7,-9.07
-2.15,-8.48,0.54,88.08,-42.82,-8.64
-2.07,-8.04,1.26,89.73,-31.97,-9.5
-1.73,-7.83,1.44,86.68,-24.53,-9.19
-1.87,-7.86,1.14,89.79,-29.34,-5.29
-1.74,-7.9,0.5,97.59,-47.58,-1.94
-1.01,-7.62,0.92,110.58,-46.54,-0.05
-1.02,-6.84,2.21,121.56,-28.67,6.48
-1.45,-6.23,3.14,123.69,-14.89,7.03
-1.95,-5.7,4.17,121.13,-3.37,1.84
-2.17,-5.79,3.95,117.29,-8.06,1.05
-2.25,-5.79,3.65,119.67,-29.16,1.66
-1.45,-5.47,3.7,126.68,-28.31,1.54
-1.16,-4.92,4.39,135.89,-12.88,0.99
-1.57,-3.8,6.12,131.68,4.68,-4.13
-2,-3.67,6.44,118.69,-0.44,-5.96
-2.23,-3.94,5.51,108.87,-32.27,-7.73
-1.45,-4.15,5.14,116.74,-37.94,-16.39
-0.23,-3.69,4.94,128.02,0.84,-16.2
-0.62,-3.28,5.5,139.12,32.73,-7.73
-3.12,-2.08,7.9,148.81,-26.24,1.97
-3.83,-1.4,8.04,144.48,-141.36,-1.33
0.16,-1.73,8.86,147.35,-103,-23.52
2.14,-1.39,10.12,139.48,40.04,-16.75
-0.54,-1.73,10.04,133.51,70.17,-0.23
-2.69,-1.82,9.27,129.67,-17.27,12.33
-3.87,-1.12,9.2,134.61,-158.98,5.56
0.41,-0.85,10.11,137.17,-131.9,-21.39
2.05,-0.23,11.93,128.39,5.41,-23.7
-0.04,-0.28,12.34,104.85,54.31,-7.06
-1.63,-0.93,10.93,101.44,15.35,3.12
-2.03,-0.83,9.82,107.29,-51.17,9.59
-1.07,0.34,11.05,106.44,-74.77,0.93
0.33,0.85,12.51,87.96,-12.33,-11.69
-0.09,0.73,12.81,71.01,31.94,-9.19
-1.2,0.23,12.2,61.07,13.52,-2.79
-1.54,0.28,11.58,60.4,-30.44,0.44
-0.5,0.77,11.52,60.7,-39.1,-2.06
0.35,1.04,12.01,46.62,10.23,-1.88
-0.14,0.67,12.04,41.31,46.02,-2.67
-0.89,0.73,11.34,28.39,27.48,2.58
-1.35,0.57,10.85,21.62,-4.47,5.87
-0.86,0.94,10.63,22.17,-9.28,2.39
-0.49,1.07,10.81,16.92,13.58,0.26
-0.59,0.98,10.6,13.57,29.68,-0.53
-1.14,1.06,10.22,9.12,20.9,0.87
-2.63,0.16,8.11,4.73,5.41,1.78
-1.32,0.42,9.05,7.17,9.37,7.39
-1.22,0.54,8.93,4.85,5.96,7.76
-1.27,0.48,8.82,1.86,0.47,5.87
-1,0.49,8.9,-2.53,-1.6,5.93
-1.13,0.53,9.01,-6.86,-0.87,6.66
-1.41,0.37,8.89,-8.26,-2.88,1.6
-1.69,0.19,9,-4.72,-10.26,-9.44
-1.67,0.51,8.9,-1.67,-20.02,-17
-1.26,0.9,8.81,-1.86,-23.06,-15.53
-0.99,0.73,8.83,-2.65,-18.06,-3.83
-5.22,15.25,12.72,-88.2,-15.93,-13.7
-1.34,0.31,9.09,-8.44,-5.44,-2.91
-1.37,0.49,9.16,-5.88,0.35,-5.78
-1.24,0.38,9.24,-3.81,-3.55,-8.4
-1.04,0.53,9.17,-2.71,-4.41,-8.46
-1.15,0.63,9.42,-1.61,-0.93,-6.51
-1.33,0.85,9.91,-2.04,-2.94,-5.23
-1.32,0.79,10.18,-7.04,-7.33,-6.02
-1.11,0.61,10.44,-12.04,-4.71,-5.11
-1.05,0.46,10.24,-16.43,1.02,-5.78
-1.22,0.37,9.93,-20.33,3.03,-6.81
-1.36,0.2,10.13,-21.25,0.29,-8.1
-1.28,0.35,10.35,-24.72,-4.77,-8.52
-1.2,0.23,10.71,-27.4,-4.1,-8.03
-1.13,0.37,11.11,-35.76,1.14,-7.3
-1.08,0.36,11.35,-44.29,8.52,-6.39
-1.04,0.28,11.32,-52.28,14.56,-5.9
-1.28,-0.01,11.29,-56.67,14.37,-5.53
-1.53,-0.02,11.6,-61.67,6.02,-5.84
-1.59,0.35,12.61,-68.81,-2.27,-5.9
-1.62,0.42,12.88,-80.94,-0.69,-7.49
-1.51,0.06,12.71,-92.89,0.35,-10.41
-1.1,-0.53,11.75,-104.42,12.48,-13.83
-0.74,-0.86,11.19,-110.21,27.67,-11.57
-1.24,-0.83,11.32,-114.72,21.45,-5.96
-1.38,-1.03,11.45,-120.57,10.78,-1.75
-1.43,-1.09,11.04,-129.17,12.12,-1.45
-1.31,-1.39,10.73,-136.31,24.01,-4.19
-1.22,-1.43,10.43,-147.04,35.96,-6.45
-0.99,-1.97,9.3,-158.32,48.52,-9.86
-1.26,-2.45,8.13,-161.43,51.2,-8.4
-0.86,-3.24,6.16,-161.85,44.98,-11.94
-1.08,-3.24,5.64,-156.49,35.29,-11.27
-0.9,-3.16,6.01,-154.66,46.26,-10.66
-0.87,-3.62,6.17,-151.55,51.2,-6.33
-1.2,-4.02,5.42,-154.17,50.47,-1.39
-1.41,-4.3,4.62,-150.39,45.41,-1.88
-1.62,-4.74,4.14,-150.15,44.56,-5.66
-1.49,-5.02,3.21,-147.22,35.29,-9.07
-1.48,-5.54,2.77,-139.78,33.83,-5.9
-1.46,-6.04,2.33,-130.88,37,-3.1
-1.65,-6.31,1.96,-121.43,37.91,-0.23
-2.24,-6.5,2.53,-113.93,34.68,-0.23
-2.4,-6.69,2.14,-110.82,30.53,-0.6
-2.32,-7.37,1.9,-104.84,29.56,-0.47
-2.8,-7.27,1.93,-100.33,16.57,-0.96
-2.82,-7.33,1.54,-97.16,-4.95,-1.69
-2.69,-7.78,1.27,-91.43,-21.24,-1.27
-2.49,-8.01,-0.1,-95.33,-23.43,-3.83
-2.34,-8.13,-0.5,-87.53,-11.3,-10.29
-2.19,-8.37,-0.64,-77.4,-3.61,-6.27
-2.42,-9,-0.91,-63.5,-5.08,1.42
-2.25,-8.89,-0.95,-59.05,-11.72,3.86
-2.39,-9.09,-0.68,-45.39,-19.71,4.53
-2.48,-9.19,-0.53,-39.23,-19.71,6.05
-2.49,-8.97,-0.19,-32.04,-4.47,5.93
-2.61,-9.04,0.14,-27.22,11.2,6.97
-2.88,-9.04,0.22,-23.93,16.87,8.92
-3.33,-9.33,0.25,-19.29,8.52,7.39
-3.23,-9.45,0.15,-13.44,-6.05,5.5
-3.07,-9.35,0.38,-7.59,-12.7,5.93
-2.98,-9.1,0.38,-3.93,-8.8,5.69
-2.92,-9.02,-0.23,-1.73,2,2.64
-2.89,-9.3,-0.52,5.22,10.72,3
-3.06,-9.5,-0.8,11.92,14.07,2.94
-3.29,-9.28,-0.99,20.83,10.05,4.59
-4.06,-9.1,-0.75,28.02,-10.5,3.8
-4.21,-9.11,-1.02,35.77,-36.11,-0.17
-3.58,-8.88,-0.94,45.7,-43.67,-7.55
-2.72,-8.88,-0.61,56.44,-32.33,-12
-2.29,-8.76,-0.54,61.01,-18.92,-11.02
-2.33,-8.7,-0.54,68.63,-15.38,-8.22
-2.86,-8.66,-0.36,80.09,-34.83,-2.55
-2.78,-8.5,0.58,91.07,-52.03,-1.88
-2.12,-7.98,1.45,92.59,-51.48,-5.72
-1.93,-7.8,2.01,89.18,-41.66,-5.9
-1.95,-7.73,1.9,88.45,-31.91,-6.69
-2.39,-7.8,2.38,95.7,-45.81,-3.77
-1.7,-7.56,2.53,96.13,-57.33,-7.12
-0.76,-7.36,3.34,97.05,-36.6,-4.01
-0.86,-6.95,3.86,95.09,-7.33,2.15
-1.86,-6.95,4.11,93.33,-6.36,7.58
-2.46,-6.77,4.07,95.52,-33.25,7.64
-2.06,-6.71,3.93,99.3,-51.05,2.51
-1.13,-6.47,4.6,105.09,-35.26,2.51
-1.52,-5.95,5.37,107.29,-17.27,6.54
-2.23,-5.6,5.84,105.64,-21.36,3.31
-2.08,-5.25,6.45,99.91,-29.59,0.69
-1.79,-5.34,6.14,90.22,-29.22,-3.03
-1.32,-5.42,5.21,88.87,-16.3,-5.05
-0.99,-5.59,4.94,98.87,2.36,-5.53
-1.68,-5.11,5.71,114.97,-10.75,2.45
-2.84,-4.04,7.14,114.55,-62.45,2.58
-1.94,-3.73,7.48,107.59,-80.44,-10.96
0.16,-3.72,7.78,101.31,-13.31,-19.92
0.01,-3.81,7.86,94.91,47.97,-13.03
-1.31,-4.19,7.21,92.9,37.06,-0.17
-2.5,-4.1,6.26,104.06,-38.06,11.78
-2.39,-3.05,6.4,107.11,-87.03,-2.85
0.41,-2.41,7.81,106.01,-9.59,-21.63
0.4,-2.4,8.71,98.2,79.92,-13.22
-2.32,-2.75,9.16,96.37,43.09,3.19
-3.17,-2.84,8.11,101.5,-59.41,15.5
-1.32,-2.3,7.88,111.19,-92.88,10.2
1.2,-1.72,8.96,111.92,9.74,2.03
-0.41,-0.87,9.59,96.07,100.96,4.22
-3.22,-1.59,9.95,88.63,54.01,7.88
-3.75,-1.66,9.05,92.17,-53.8,12.88
-2.01,-1.29,8.6,103.69,-93.37,4.53
0.46,-0.25,10.22,99.91,-0.81,-1.2
-0.94,0.25,11.53,86.56,69.43,7.7
-3.54,0,12.04,82.47,8.7,8.49
-3.35,0.07,11.29,78.33,-78,5.44
-0.91,0.41,11.61,73.51,-65.32,-4.74
0.04,0.52,12.32,64.24,21.26,-8.03
-1.43,0.92,12.66,52.35,41.39,-2
-2.24,0.28,12.68,46.86,-11.11,-1.14
-1.85,0.38,11.42,41.62,-53.67,0.32
-0.64,0.69,10.99,29.97,-37.52,-0.84
-0.15,0.82,11.4,23.69,13.83,-1.02
-1.06,0.58,11.28,12.59,32.12,1.54
-1.69,0.52,10.59,7.53,10.9,1.3
-1.4,0.46,9.83,4.61,-5.2,2.45
-1.11,0.36,9.58,6.86,-3.61,3.86
-1.06,0.44,9.68,1.01,7.73,4.28
-1.56,0.53,9.66,-1.06,9.62,4.22
-1.76,0.41,9.24,-3.08,3.89,1.9
-1.74,0.26,9,-1.37,-3.43,1.17
-1.52,0.35,8.99,-1.19,-5.99,-0.17
-1.02,-7.18,10.17,19,28.64,5.08
-1.01,0.25,9.3,1.5,31.14,12.45
-1.61,0.21,9.11,0.95,20.11,11.17
-1.7,0.05,8.88,-0.7,7.97,6.3
-1.5,0.15,8.99,-3.56,3.46,3.25
-1.51,-0.03,8.9,-5.15,0.65,-1.63
-1.72,-0.33,8.86,-2.04,-7.58,-9.68
-1.91,-0.1,9.05,-3.01,-24.28,-19.8
-1.52,0.23,8.61,-1.67,-33.74,-25.72
-0.93,0.98,8.32,-3.32,-27.64,-11.33
-0.89,0.45,8.44,-8.38,-15.32,1.48
-1.13,0.06,8.49,54.91,7.48,5.69
-0.96,0.09,9.22,2.47,-5.75,-2.24
-1.28,0.25,9.06,-2.16,-9.77,-7.24
-1.2,-0.04,9.13,1.13,-9.83,-9.62
-1.13,0.21,9.04,3.27,-7.88,-9.92
-1.13,0.32,9.15,5.4,-6.78,-6.27
-1.03,0.21,8.93,4.18,-2.7,-6.51
-1.13,0.34,9.31,4.3,1.39,-5.72
-1.19,0.31,9.64,1.86,-0.81,-5.11
-1.23,0.28,9.51,-0.94,-4.22,-6.94
-1,0.13,9.42,-2.34,-1.48,-7.42
-1.05,0.36,9.72,-5.7,-1.48,-5.9
-1.03,0.44,9.87,-10.76,-2.7,-1.88
-1.14,0.39,10.15,-12.89,-3.13,-0.9
-1.18,0.5,10.48,-15.45,-4.83,-1.08
-1.25,0.54,10.88,-17.77,-8.19,-0.53
-1.12,0.62,11.36,-26.49,-7.39,-2.55
-0.65,0.77,11.67,-39.36,5.23,-3.46
-0.65,0.58,12.21,-50.21,17.18,-0.53
-1.05,0.5,12.38,-59.72,20.11,1.11
-1.24,0.34,12.35,-68.44,15.96,1.72
-1.54,0.23,12.5,-76.98,11.39,-1.27
-1.67,0.09,12.3,-88.81,12.67,-6.27
-1.31,-0.36,11.97,-96.98,18.83,-8.16
-1.52,-0.24,12.33,-107.83,20.47,-4.68
-1.99,-0.38,12.34,-120.64,19.13,-7.91
-2.34,-0.42,12.2,-135.57,13.64,-14.74
-1.72,-1.29,10.75,-147.04,19.68,-19.99
-1.53,-2.13,9.48,-148.93,28.89,-19.07
-1.9,-1.94,9.85,-146.61,27.91,-16.51
-1.97,-2.01,9.79,-152.59,29.86,-16.75
-1.53,-2.37,9.58,-159.84,37.85,-14.62
-1.56,-2.59,8.69,-169.05,47.36,-14.5
-1.35,-2.9,7.56,-174.66,62.24,-17.24
-1.4,-3.65,6.57,-174.66,61.14,-15.41
-1.72,-3.95,5.98,-166.98,46.2,-14.13
-1.5,-4.21,5.67,-160.94,34.8,-12.42
-1.57,-4.3,5.6,-158.93,31.33,-12.18
-1.27,-4.62,4.66,-157.77,39.13,-11.02
-1.19,-4.96,3.31,-156.24,49.43,-9.31
-1.5,-5.52,2.75,-146.61,48.28,-5.05
-1.68,-5.76,2.49,-137.28,39.43,-2.24
-1.89,-5.84,2.55,-132.1,32.24,-0.96
-1.86,-6.22,1.51,-127.77,22.3,0.2
-2.12,-6.93,1.26,-119.84,14.31,-0.23
-2.3,-6.87,1.06,-112.34,7,-2.24
-1.89,-7.04,0.29,-104.54,2.55,-0.41
-1.74,-7.95,-0.26,-95.88,2.24,4.77
-2.25,-7.8,0.17,-82.04,6.08,8.43
-1.96,-8.1,0.13,-81.86,6.75,10.38
-2.3,-8.13,0.02,-71.86,4.98,8.19
-2.5,-8.56,-0.15,-68.2,-3.92,8.73
-2.59,-8.58,-0.06,-61.49,-12.58,9.53
-2.7,-8.61,0.24,-56.86,-11.05,8.49
-2.7,-8.67,0.36,-52.4,-3,8
-2.95,-8.59,0.31,-57.1,0.65,4.22
-2.7,-8.78,0.19,-54.05,0.96,4.16
-2.91,-9.07,-0.14,-46.43,-2.45,7.76
-2.83,-9.28,-0.5,-45.27,-5.63,8.43
-3.19,-9.05,-0.04,-37.77,-9.16,7.64
-3.23,-9.12,-0.15,-31.73,-8.61,4.4
-3,-9.18,0.03,-28.14,-3.31,2.82
-2.82,-9.38,0.05,-23.5,2,5.87
-3.01,-9.43,0.01,-18.32,2.24,8.49
-3.27,-9.14,-0.22,-16.73,1.69,7.45
-3.29,-9.26,-0.33,-14.11,-0.69,5.5
-3.18,-9.37,-0.76,-11.67,-2.45,4.16
-3.15,-9.36,-0.61,-4.66,-2.15,5.75
-3.17,-9.24,-0.39,-1,0.17,5.81
-3.01,-9.4,-0.41,2.17,4.44,4.22
-3.4,-9.06,-0.53,4.24,-3.61,6.54
-3.69,-9.28,-0.35,7.9,-4.89,5.08
-3.75,-9.25,-0.35,16.25,-14.04,4.22
-3.44,-9.04,-0.3,17.35,-12.15,0.26
-3.41,-9.08,-0.3,19.61,-3.86,-1.39
-3.41,-9.02,-0.59,21.92,3.15,-1.45
-3.74,-9.16,-0.82,26.99,-4.04,-2.24
-3.97,-9.21,-1.25,34.55,-26.91,-2.55
-3.59,-9.12,-1.74,44.24,-47.15,-7.55
-2.68,-8.85,-1.83,53.14,-53.92,-12.18
-1.69,-8.84,-2.22,62.47,-49.1,-11.39
-1.51,-8.74,-2.25,73.45,-48,-3.89
-2.02,-8.48,-1.74,85.52,-59.65,5.32
-2.52,-8.09,-0.96,96.74,-72.52,5.01
-2.3,-7.73,-0.23,103.51,-69.53,-0.05
-2.07,-7.56,0.6,107.23,-58.37,-1.81
-2.41,-7.49,1.39,113.39,-56.84,3.67
-2.63,-7.27,1.86,117.78,-64.71,2.09
-2.23,-6.84,2.79,123.75,-51.05,-2.85
-1.76,-6.56,3.39,116.25,-25.08,-6.27
-2.25,-6.47,3.97,116.25,-14.22,-5.47
-2.64,-6.61,3.96,116.31,-30.2,-6.94
-1.86,-6.46,4.29,120.34,-34.89,-6.08
-1.48,-5.91,4.58,118.26,-8,-5.96
-1.95,-5.47,4.99,115.89,9.92,-5.29
-2.51,-5.24,4.73,111.31,-2.82,-8.52
-2.35,-4.98,4.36,108.02,-25.69,-9.99
-1.54,-5.1,4,113.45,-36.6,-9.62
0.1,-4.9,4.21,123.69,6.02,-11.94
-0.69,-3.57,5.75,121.13,41.87,-1.2
-2.06,-3.67,5.97,112.47,21.75,4.59
-2.55,-3.36,5.73,117.47,-19.22,4.28
-1.23,-3.24,5.41,125.46,-20.5,1.17
-1.04,-2.3,7.45,129.91,17.06,-0.11
-1.55,-2.19,8.39,123.75,38.15,5.62
-2.74,-2.68,7.92,123.57,14.25,11.72
-3.07,-2.74,7.41,135.58,-32.33,14.71
-1.89,-1.77,8.78,145.76,-12.09,4.4
-1.46,-1.57,9.16,142.17,33.89,8.49
-3.24,-1.82,8.8,144.67,19.8,13.43
-4.06,-1.81,8.15,152.47,-48.61,11.3
-2.59,-0.95,8.47,160.4,-78.98,3.86
-0.78,-0.1,10.44,159.42,-27.15,0.56
-1.23,0.93,11.76,139.54,24.13,14.53
-2.82,-0.02,11.44,129.91,-0.99,21.05
-3.2,0.13,10.66,131.68,-58.92,19.95
-1.56,0.65,11.2,134.97,-51.05,13.19
-1.32,2.01,12.93,119.73,3.15,9.1
-2.56,2.01,13.3,95.95,13.64,11.97
-3.14,1.54,12.5,82.9,-21.54,10.01
-3.01,1.44,12.2,75.16,-53.86,5.56
-1.54,1.73,11.98,68.63,-28.86,2.09
-1.28,2.12,12.9,54.48,22.73,2.33
-2.4,1.82,12.77,41.07,22.67,-0.23
-2.55,1.83,11.07,42.9,-7.45,-5.29
-1.84,1.59,11.12,25.22,-25.56,-1.27
-1.28,1.4,10.88,25.95,-17.09,0.38
-1.31,1.84,10.79,16.56,7.12,5.56
-1.75,1.92,10.73,6.31,12.24,7.21
-1.28,1.32,6.9,4.3,-0.26,-5.11
-1.86,0.86,8.74,9.18,16.08,-3.22
-1.76,1.3,8.96,5.83,16.75,-2.61
-1.89,1.21,8.91,2.72,8.89,-2.42
-1.81,1.09,8.75,-0.76,-0.99,-1.27
-1.74,1.14,8.78,-3.69,-6.6,-0.78
-1.99,0.69,8.87,-3.99,-10.5,-5.6
-2.04,1.04,8.87,-3.44,-16.97,-14.38
-1.88,1.45,8.63,-2.89,-23.13,-19.99
-1.59,1.69,8.06,-6.8,-18.55,-11.94
-1.58,1.41,8.36,-13.01,-15.87,-0.72
-1.54,1.35,8.65,-19.9,-15.81,6.9
-1.62,0.94,8.82,-21.43,-11.05,7.82
-5.12,-2.23,11.31,-12.71,-16.72,12.64
-2.21,0.74,8.78,-11.92,-9.71,-0.96
-1.41,1.06,8.7,-8.62,-3.8,-2.91
-1.43,0.85,8.68,-2.22,-4.77,-1.81
-1.48,0.89,8.85,-1.8,-5.02,-1.2
-1.46,0.91,8.87,0.28,-4.35,-2.24
-1.48,0.99,9.12,-1.8,-1.91,-2.06
-1.49,1.03,9.34,-3.5,-1.72,-1.2
-1.62,0.98,9.59,-5.15,-2.76,-2.85
-1.6,1.02,9.54,-7.95,-0.2,-3.64
-1.62,1,10,-9.78,2.36,-4.5
-1.62,1.17,10.09,-13.75,1.33,-3.03
-1.79,1.12,10.55,-19.78,-5.44,-2.24
-1.8,1.02,10.59,-25.03,-10.69,-4.44
-1.59,1.06,10.96,-28.69,-8.61,-7.12
-1.64,0.91,11.24,-35.94,-5.26,-7.73
-1.75,0.95,11.27,-42.65,-4.59,-6.39
-1.72,0.61,11.08,-48.5,-6.78,-7.73
-1.82,0.77,11.29,-53.2,-8.86,-9.8
-1.61,0.56,11.47,-59.23,-1.6,-12.61
-1.64,0.56,11.95,-67.65,7.55,-13.7
-1.66,0.57,12.15,-76.55,14.8,-12.67
-2.13,0.58,12.57,-88.62,12.73,-12
-2.25,0.21,12.31,-96.25,7.79,-13.03
-2.21,0.1,12.23,-105.88,7.67,-16.88
-1.9,-0.42,11.9,-113.2,12.73,-19.44
-1.89,-0.68,11.38,-116.18,14.44,-19.5
-1.8,-0.68,11.85,-114.72,11.51,-17.24
-2.05,-0.45,12.53,-120.51,10.59,-14.92
-1.72,-0.85,11.62,-137.46,10.72,-13.89
-1.33,-1.43,9.95,-148.81,19.31,-13.7
-0.9,-1.9,9.18,-149.78,36.2,-12.67
-0.9,-2.02,8.63,-149.84,43.15,-6.81
-1.12,-1.99,7.97,-158.01,45.04,-5.11
-1.22,-2.45,7.34,-166.85,45.23,-6.45
-1.1,-2.79,6.58,-169.72,51.14,-6.08
-1.15,-3.13,5.37,-175.7,55.96,-6.51
-1.08,-3.69,4.2,-170.7,59.62,-3.83
-1.38,-4.28,3.73,-163.2,56.2,-4.07
-1.73,-4.26,3.88,-156,47.67,-0.6
-1.86,-4.67,3.28,-151.85,37.97,-2.36
-1.77,-5.09,2.91,-147.89,40.04,-4.8
-1.71,-5.53,2.96,-140.45,45.29,-3.7
-1.9,-5.77,2.63,-138.26,47.67,-3.52
-2.31,-6.18,2.09,-130.51,37.06,0.01
-2.21,-6.88,1.24,-126.98,26.33,1.6
-2.34,-6.89,1.55,-113.81,27.91,3.73
-2.9,-6.88,1.42,-113.5,28.95,-0.78
-2.97,-7.32,1.11,-111.43,28.83,-5.9
-2.74,-7.42,0.49,-111,25.9,-6.88
-2.5,-7.92,-0.06,-101.67,26.26,-7.49
-2.6,-8.24,-0.06,-91.73,21.02,-4.86
-2.85,-8.49,-0.31,-84.42,8.34,-2.24
-2.99,-8.22,-0.45,-76.92,7.18,-6.75
-2.75,-8.43,-0.29,-71.43,1.02,-6.2
-2.58,-8.64,-0.82,-68.07,0.72,-5.78
-2.53,-8.58,-0.84,-70.03,-0.93,-4.92
-2.57,-9.11,-1.01,-59.42,1.02,-2.55
-2.59,-9.26,-1.45,-49.29,-0.38,0.26
-2.57,-9.29,-1.48,-40.76,-5.08,4.22
-2.88,-9.22,-1.45,-30.76,-12.58,5.75
-2.85,-9.2,-1.41,-19.72,-10.69,7.82
-2.87,-9.11,-1.11,-15.21,-3.43,9.95
-3.05,-9.26,-1,-10.33,3.64,11.05
-3.36,-9.35,-0.82,-3.56,5.96,11.6
-3.92,-9.21,-0.35,-0.21,1.69,11.48
-4.08,-9.03,-0.25,-0.45,-7.03,6.6
-3.8,-9.16,-0.39,-0.64,-9.77,0.26
-3.46,-9.21,-0.48,2.9,-7.58,-1.69
-3.25,-9.3,-0.17,7.72,-3.06,0.62
-3.23,-9.07,-0.23,7.6,5.17,-0.72
-3.53,-9.04,0.15,7.41,3.7,2.51
-3.77,-9.16,-0.04,10.22,6.45,-0.66
-3.99,-9.15,0.21,11.8,-0.44,-1.63
-3.95,-9.23,-0.11,12.84,-7.09,-4.8
-3.65,-9.16,-0.22,14.3,-10.87,-6.88
-3.18,-9.13,-0.59,17.53,-10.14,-8.03
-2.85,-9.35,-0.88,24.06,-9.04,-3.83
-3.13,-9.12,-1.01,28.45,-8.98,-1.57
-3.27,-9.14,-0.96,33.81,-13.74,-1.45
-3.35,-9.04,-0.98,39.85,-17.39,-1.57
-3.28,-8.94,-1.51,44.55,-22.03,-4.31
-3.12,-8.96,-1.85,54.3,-27.27,-3.83
-3.13,-8.69,-1.54,65.58,-34.77,-2.49
-2.66,-8.28,-1.22,73.39,-40.14,-4.92
-2.34,-8.19,-0.93,81.19,-36.66,-4.01
-2.13,-8.25,-0.86,88.14,-37.09,-2
-2.26,-8.17,-0.71,97.41,-46.66,1.78
-2.42,-7.87,0.03,108.08,-63.8,4.77
-2.19,-7.19,1.19,116.86,-63.06,4.22
-2.11,-6.94,2.44,117.23,-48.61,3.55
-2.38,-6.74,2.71,112.11,-37.58,2.33
-2.71,-6.88,3.06,112.53,-39.83,-0.9
-2.31,-6.88,3.16,111.44,-42.58,-4.8
-1.58,-6.76,3.83,116.5,-28,-3.77
-1.65,-6.45,4.13,116.68,-14.71,4.34
-2.54,-6.13,4.65,119.79,-22.7,6.66
-2.87,-5.53,5.71,118.81,-41.91,2.45
-1.71,-5.48,5.67,110.09,-30.38,-5.41
-0.98,-5.58,5.1,107.72,0.11,-2.97
-1.49,-5.51,4.91,108.26,7.97,6.17
-2.31,-5.08,4.45,109.48,-20.08,11.36
-2.57,-4.93,4.51,118.14,-51.48,8.25
-1.27,-4.28,5.33,129.48,-35.69,-1.94
-0.45,-3.48,6.62,127.53,27.54,0.56
-1.9,-3.86,6.89,120.7,29.37,14.22
-3.54,-3.7,6.16,118.94,-35.56,23.67
-3.74,-3.58,5.35,127.59,-107.82,11.78
-0.39,-2.65,6.26,143.39,-43.86,-9.62
0.56,-1.93,7.83,138.26,69.07,-1.2
-2.05,-2.26,8.18,132.11,74.86,18.19
-4.41,-2.4,7.58,138.63,-16.42,29.71
-4.58,-2.13,7.12,154.54,-123.25,22.51
-0.5,-1.44,8.41,171.74,-69.1,1.66
-0.47,-0.06,11.26,161.98,35.11,1.6
-2.95,0.87,10.98,131.98,22.06,10.99
-3.74,-0.52,9.17,131.25,-64.77,14.28
-1.7,0.15,9.2,145.58,-101.11,12.03
0.88,0.89,10.74,150.83,-17.27,9.59
-0.82,2.77,13.2,126.31,44.8,18.67
-2.88,1.99,12.65,100.16,3.03,20.81
-2.88,1.45,11.12,90.34,-45.5,12.88
-1.41,1.57,10.94,91.62,-32.03,7.88
-1.13,2.06,11.63,83.2,13.46,7.33
-2.59,2.04,12.1,76.13,10.59,7.51
-3.26,2.38,12.51,65.77,-34.77,1.54
-2.23,2.19,11.83,56.25,-55.87,-5.11
0.59,-5.13,7.92,39.73,18.52,8.55
-1.21,0.94,9.15,10.95,15.96,-0.96
-1.45,1.15,8.79,8.02,13.15,-0.72
-1.67,0.99,8.78,8.08,5.35,-2.67
-1.53,1.12,8.83,3.57,-6.54,-1.33
-1.44,1.37,9.15,-4.54,-15.75,0.75
-1.5,1.17,8.9,-7.71,-10.63,-3.28
-1.69,1.01,8.94,-6.12,-5.2,-15.53
-1.8,1.71,8.9,-8.38,-7.45,-19.92
-1.59,2.06,8.44,-15.21,-13.67,-9.62
-1.34,1.52,8.69,-21.55,-15.08,5.5
-1.2,1.37,8.67,-23.99,-9.47,12.03
-0.91,0.67,8.98,-20.7,-3,9.65
-1.39,1.14,8.87,-20.94,-0.02,2.94
-1.57,0.91,9.36,-13.75,-1.91,-0.47
-1.61,0.94,9.19,-6.67,0.9,-3.83
-1.7,1.18,9.43,-1.31,4.19,-3.7
-1.92,1.07,9.96,-1,-2.09,-5.78
-1.96,1.36,10.54,-9.36,-8.19,-7.91
-1.78,1.15,10.77,-20.88,-10.32,-8.95
-1.71,1.08,10.66,-28.38,-3.92,-11.27
-1.7,1.01,11.07,-34.97,5.65,-12.85
-1.61,1.05,11.1,-40.88,9.07,-10.23
-1.72,0.6,11.17,-44.17,4.44,-10.6
-1.84,0.93,11.63,-48.81,-2.82,-11.69
-1.5,1.1,12.09,-61.31,4.98,-11.63
-1.49,0.82,12.25,-76.86,15.47,-9.25
-1.64,0.45,11.57,-85.45,20.65,-10.41
-1.88,0.16,11.63,-90.94,21.75,-10.11
-2.01,0.01,11.52,-96.98,15.35,-12.42
-1.64,-0.24,11.58,-102.04,25.11,-14.8
-1.84,-0.12,12.19,-112.4,34.5,-16.75
-2.46,-0.19,12.67,-119.78,29.8,-17.36
-2.18,-0.6,12.22,-130.76,24.62,-20.59
-1.78,-1.14,11.36,-137.65,29.74,-19.44
-1.85,-1.55,10.59,-143.74,35.53,-19.8
-2.41,-1.86,10.34,-142.16,20.29,-16.14
-2.27,-1.99,10.13,-140.82,11.57,-14.62
-2.03,-2.08,9.69,-141.85,8.52,-13.52
-1.62,-2.33,9.01,-145.57,14.13,-12.97
-1.49,-2.76,7.74,-151.61,10.72,-9.99
-1.62,-2.96,6.81,-153.32,0.23,-5.29
-1.41,-3.33,5.52,-151.06,-12.94,-1.08
-1.33,-3.88,4.71,-140.33,-16.66,6.17
-1.28,-3.88,4.46,-125.09,4.31,8.55
-1.55,-3.75,5.12,-123.07,33.22,6.05
-1.88,-3.74,4.78,-136.92,44.25,3.31
-1.91,-4.32,4.13,-140.88,45.47,-0.41
-1.62,-4.85,3.05,-141,40.11,-3.95
-1.5,-4.9,3.06,-141.18,36.93,-9.56
-0.96,-5.75,2.53,-136.73,43.58,-6.45
-1.15,-5.88,2.45,-129.84,49.74,-0.35
-1.45,-6.24,2.37,-124.96,57.48,1.17
-1.85,-6.39,1.79,-123.68,61.93,-1.33
-2.11,-7.04,1.38,-118.07,57.12,-1.45
-2.2,-7.53,0.61,-111.79,46.08,-1.51
-2.54,-7.76,0.45,-101.98,35.29,1.05
-2.84,-7.99,0.05,-97.34,26.87,0.26
-2.88,-8.4,0.08,-83.56,22.91,-1.51
-2.41,-8.33,-0.38,-80.76,23.95,-1.2
-2.6,-8.63,-0.72,-70.7,22.12,0.14
-3.03,-8.74,-0.93,-63.62,14.31,3
-3.18,-9.12,-1.43,-54.05,7.3,0.69
-2.98,-9.13,-1.35,-41.12,3.89,0.26
-2.86,-9.08,-0.93,-31.79,2.67,0.2
-2.78,-8.97,-0.91,-26.67,3.34,2.33
-2.9,-8.93,-0.75,-21.73,5.17,2.94
-3.03,-9.09,-0.74,-15.39,3.83,4.47
-3.07,-9.27,-0.6,-9.48,2,5.56
-3.27,-9.19,-0.04,-3.14,0.65,6.48
-3.35,-9.11,0.33,0.4,-0.63,5.93
-3.41,-8.98,0.61,0.89,0.11,4.65
-3.32,-9.03,0.77,1.8,4.01,3.61
-3.43,-9.14,0.95,1.99,4.74,4.22
-4.03,-9.29,1.21,1.92,0.78,2.27
-3.78,-8.99,0.9,1.31,-3.67,-1.33
-3.57,-9.16,1.16,2.11,-5.81,-2.61
-3.21,-9.08,0.78,1.92,-0.93,-2.79
-3.3,-9.11,0.44,2.96,-0.75,-1.57
-3.49,-9.24,0.13,7.35,-3.13,1.23
-3.52,-9.3,-0.17,10.4,-8.92,1.05
-3.69,-9.15,-0.18,16.99,-19.41,1.17
-3.63,-9.09,-0.09,20.4,-19.71,-1.51
-3.66,-9.02,-0.17,24.06,-20.56,-2.12
-3.58,-8.97,-0.19,29.67,-24.95,-4.19
-3.28,-8.88,-0.37,34.97,-26.84,-5.05
-2.88,-8.92,-0.31,41.56,-20.5,-1.75
-2.86,-8.89,-0.02,48.51,-18.31,0.81
-3.03,-8.78,0.44,55.7,-19.95,3.49
-3.09,-8.54,0.71,62.35,-22.45,3.8
-3.04,-8.2,1.01,63.33,-25.44,-1.27
-2.6,-8.08,1.28,64.55,-19.77,-2.91
-2.41,-8.43,1.16,66.44,-17.52,-1.63
-2.81,-8.29,1.22,71.74,-27.27,1.05
-2.8,-8.18,1.43,77.17,-43.67,2.33
-2.39,-8.08,1.51,78.57,-51.48,0.2
-2.18,-7.86,1.75,83.81,-50.56,2.76
-2.46,-7.65,2.01,86.25,-55.81,3.73
-2.43,-7.51,2.1,90.76,-65.62,2.51
-1.92,-7.34,2.49,96.62,-67.03,2.64
-1.54,-6.92,3.16,99.18,-49.04,5.93
-2.14,-6.66,3.4,98.45,-35.02,4.04
-2.74,-6.54,3.56,99.3,-50.38,0.81
-1.98,-6.18,3.57,98.94,-54.28,-6.08
-0.97,-6.13,3.82,105.22,-24.53,-7.85
-0.91,-5.92,4.52,112.65,5.59,-1.02
-2.15,-5.45,5.71,114,-3.19,9.53
-3.18,-5.02,5.89,110.7,-44.95,6.42
-1.46,-4.76,5.86,106.62,-37.33,-8.89
0.04,-4.55,5.1,99.18,23.34,-12.97
-0.56,-4.74,5.1,105.03,60.84,-1.02
-2.81,-4.66,5.74,117.96,16.87,11.9
-4.18,-4.27,5.85,128.94,-79.28,9.59
-1.14,-3.11,6.38,130.7,-69.28,-6.94
0.89,-2.56,7.42,118.26,41.14,-10.84
-0.63,-2.65,7.42,97.35,105.53,2.27
-3.58,-3.31,6.75,99.55,43.28,20.38
-5.16,-3.45,5.29,116.68,-88.31,25.14
-2.04,-2.39,5.69,139.06,-99.04,0.75
0.53,-1.23,8.3,141.07,36.26,-3.95
-1.69,-1.09,9.43,124.12,88.89,15.32
-4.46,-1.56,8.55,122.96,20.59,26.54
-4.34,-1.95,7.2,144.18,-61.72,29.34
-1.93,-0.36,8.73,164.61,-52.88,24.65
-1.24,1.3,11.98,148.39,37.48,17.39
-3.78,1.81,13.02,114.79,51.75,27.39
-4.92,0.07,11.12,106.13,-13.43,24.28
-4.32,-0.37,9.55,114.73,-85.75,21.6
-1.82,0.3,9.58,121.37,-71.42,12.45
-0.31,1.01,11.42,115.89,20.11,13.43
-2.62,2.05,12.73,90.52,32.36,25.69
-4.01,1.56,11.86,76.19,-27.15,20.69
-3.31,1.62,10.99,77.29,-73.12,13.79
-1.39,2.4,11.62,70.09,-40.08,1.72
-0.69,2.57,12.75,60.4,26.33,5.38
-2.2,2.58,12.92,44.48,28.09,12.94
-2.89,2.44,12.13,32.9,-19.16,12.7
-2.23,2.33,11.06,27.66,-40.32,11.66
-1.39,2.46,11.08,19.06,-21.3,5.87
-1.37,2.63,10.66,15.28,10.47,0.99
-2.17,0.91,7.5,4.12,2,1.9
-1.86,0.63,8.97,5.95,1.57,8.25
-1.84,1.03,8.72,2.78,-5.75,4.65
-1.69,1.13,8.96,0.95,-5.75,-1.02
-1.57,1.07,9.05,-2.83,-4.65,-4.74
-1.58,1.03,9.31,-12.4,-10.87,-4.31
-1.34,1.25,8.9,-17.4,-12.76,-3.4
-1.35,1.33,8.74,-17.65,-7.45,0.26
-1.33,0.98,8.67,-18.14,-6.17,1.23
-1.48,0.97,9,-12.77,-4.22,2.64
-2.37,1.24,12.1,-7.28,-2.27,10.08
-2.1,1.1,8.91,-12.34,-2.27,3
-1.87,0.94,9.39,-9.54,1.33,-2.49
-1.62,0.9,9.28,-10.76,4.86,-6.81
-1.59,0.81,9.4,-14.17,6.87,-7.79
-1.59,0.71,9.52,-16.37,3.09,-6.69
-1.64,0.78,9.84,-16,2.85,-7.24
-1.63,0.95,10.28,-19.23,3.76,-7.91
-1.58,1.07,11.07,-23.01,6.14,-8.16
-1.54,1.19,11.44,-34.05,10.41,-8.52
-1.56,0.86,11.27,-42.95,17.24,-7.61
-1.65,0.54,10.97,-50.21,21.45,-8.28
-1.73,0.63,11.04,-58.01,20.84,-6.81
-2.08,0.57,11.48,-64.9,20.59,-6.51
-2.43,0.68,12.06,-76.37,18.34,-9.13
-2.52,0.57,12.46,-87.16,20.84,-13.03
-2.44,0.22,12.43,-100.76,29.68,-18.77
-2.43,-0.19,11.83,-111.06,32.06,-20.05
-2.64,-0.78,11.35,-117.22,27.67,-20.96
-2.9,-1.09,10.88,-121.37,17.97,-20.72
-2.87,-1.22,11.05,-124.05,10.59,-22.85
-3.05,-1.33,11.63,-127.4,10.78,-24.56
-2.67,-1.48,11.25,-139.54,16.94,-26.14
-2.36,-1.91,10.47,-146.55,34.98,-24.62
-2.45,-2.14,9.46,-155.09,43.09,-25.11
-2.44,-2.94,8.61,-152.28,40.96,-23.09
-2.08,-3.06,6.97,-152.71,37.91,-22.85
-2.28,-3.19,7.1,-146.79,45.11,-23.46
-1.95,-3.54,6.56,-149.66,54.74,-21.88
-2.63,-3.4,6.73,-148.74,40.23,-15.29
-2.65,-4.2,5.58,-148.38,26.81,-18.46
-2.15,-4.27,4.57,-143.32,13.58,-20.05
-1.51,-4.49,4.45,-139.11,25.72,-19.5
-1.19,-4.72,3.87,-134.66,41.45,-15.17
-1.72,-4.7,4.6,-131.92,41.63,-9.68
-1.94,-5.06,4.65,-133.93,40.65,-8.16
-1.84,-5.43,4.35,-135.33,41.45,-5.29
-2.25,-5.83,3.59,-133.5,33.76,-4.62
-2.65,-5.67,3.85,-131.85,17.97,-9.62
-2.31,-6.15,3.63,-131.12,13.52,-8.83
-1.96,-6.34,3.06,-131.79,17.61,-8.16
-2.09,-6.71,1.86,-132.59,22.18,-5.29
-2.46,-6.94,1.31,-128.2,23.76,-2.97
-2.55,-7.19,0.2,-123.81,27,-5.66
-3.03,-7.26,-0.5,-118.2,23.4,-9.19
-2.73,-8.22,-1.37,-107.89,21.45,-9.01
-2.89,-8.44,-1.94,-91.86,9.92,-7.24
-2.83,-8.4,-2.13,-79.42,0.65,-6.69
-2.67,-8.43,-2.39,-70.57,-1.48,-4.38
-2.88,-8.6,-2.18,-58.99,2.85,-5.6
-2.75,-8.86,-2.32,-49.97,6.08,-7.85
-2.51,-9.16,-2.35,-39.78,8.95,-5.35
-2.66,-9.03,-2.43,-30.09,6.08,-0.84
-2.68,-9.17,-2.38,-20.58,6.51,3.19
-2.84,-9.09,-2.11,-13.81,7,4.28
-3.03,-9.24,-1.96,-6.49,4.25,4.53
-3.34,-9.19,-1.68,1.86,-2.09,3
-3.18,-9.29,-1.33,7.96,-1.6,2.09
-3.22,-9.08,-0.76,12.53,2.91,3.12
-3.48,-9.05,-0.61,12.11,5.72,1.3
-3.55,-9.17,-0.99,13.51,-1.36,-0.47
-3.6,-9.44,-1.65,20.09,-14.34,-1.02
-3.69,-9.26,-1.95,24.73,-29.1,-2.67
-2.78,-9.23,-1.66,36.56,-25.32,-5.05
-2.53,-8.89,-1.35,43.33,-14.77,-4.13
-2.59,-8.73,-1.56,44.67,-11.78,-3.58
-2.52,-9.01,-1.59,55.16,-13.25,-0.72
-2.55,-8.82,-1.24,63.94,-19.41,4.04
-2.73,-8.59,-0.72,70.03,-29.04,5.2
-2.52,-8.28,-0.39,75.09,-30.63,2.21
-2.32,-8.24,-0.27,78.63,-29.47,1.17
-1.87,-8.33,-0.15,84.61,-18.98,3.92
-1.97,-8.09,0.76,91.31,-10.56,11.36
-2.79,-7.81,1.21,93.45,-16.36,17.88
-3.91,-7.68,1.45,96.8,-47.76,16.78
-3.88,-7.44,1.42,101.5,-78.25,6.42
-2.1,-7.18,1.85,105.34,-62.03,-2.36
-1.3,-7.15,2.79,111.13,-23.55,5.56
-2.71,-6.78,3.56,114.18,-16.78,14.22
-4.22,-6.35,4.28,108.51,-55.26,12.09
-3.89,-6.26,4.3,104.97,-96.48,2.88
-1.74,-6.28,4.2,109,-76.3,-5.35
-0.78,-6.18,4.67,110.76,-31.17,1.3
-2.02,-5.38,5.35,103.33,-24.04,12.33
-3.39,-5.38,4.8,93.33,-69.47,10.26
-2.85,-5.43,4.42,96.8,-97.88,-4.56
-0.73,-4.79,5.7,102.84,-55.75,-9.44
-0.93,-4.51,6.71,94.97,-23.8,-1.08
-2.51,-4.92,6.31,91.62,-45.63,-0.6
-2.21,-4.91,6.06,104.67,-61.84,-9.01
-1.18,-3.87,7.17,109.42,-47.45,-17.91
0.15,-4.19,7.93,101.37,-9.28,-11.14
-1.13,-4.37,7.5,103.26,-9.71,7.39
-2.62,-4.67,6.42,109.3,-65.87,5.99
-1.5,-3.59,6.74,120.28,-71.3,-12.18
-0.01,-3.25,8.09,120.22,-37.76,-12.55
-1.3,-2.58,9.19,107.59,-40.56,-3.64
-2.2,-3.43,8.05,110.83,-79.28,-7.55
-1.36,-3.59,7.54,129.73,-100.62,-14.99
0.82,-2.69,7.95,141.62,-63.92,-15.59
1.5,-1.7,10.11,131.62,3.89,-9.44
-0.33,-1.84,9.98,115.83,12.85,4.4
-1.44,-2.44,8.77,119.12,-44.34,7.21
-0.65,-1.72,8.91,128.94,-71.54,-6.02
1.75,-1.04,9.85,136.86,-13.37,-11.81
1.66,-0.14,11.1,123.57,46.02,6.23
-0.33,0.14,10.83,107.9,37,19.16
-1.73,0.01,9.93,95.7,-10.2,15.26
-1.49,0.44,9.62,93.33,-59.28,-1.39
1.29,0.53,10.5,94.79,-12.52,-9.62
1.51,1.02,11.32,88.14,46.51,7.7
-0.19,0.96,11.16,78.81,41.39,15.93
-1.1,1.12,10.7,75.4,8.95,14.16
-1.07,1.19,10.15,72.53,-22.76,10.14
-0.5,1.47,10.67,67.11,-40.2,5.14
0.57,1.96,11.53,58.63,-4.53,2.94
0.29,2.1,11.92,49.67,23.83,8.12
-0.9,2.05,11.86,36.38,14.07,10.56
-1.22,1.97,11.47,30.46,-13.49,6.97
-0.53,1.9,11.16,25.83,-23.61,2.27
0,1.95,11.28,20.89,-5.44,0.5
-0.18,2.14,11.38,12.17,6.39,4.34
-0.72,1.86,10.66,4.36,-0.87,4.4
-0.78,1.89,10.4,0.95,-13.13,1.9
-0.47,1.69,9.76,-1.61,-13.49,0.81
-0.11,1.74,9.5,-3.69,-1.36,1.97
-0.21,1.51,9.59,-5.09,7.91,6.48
-0.85,1.72,9.62,-7.28,4.56,7.15
-1,1.7,9.23,-8.87,-6.48,1.36
-0.67,1.62,9.06,-8.26,-8.86,-1.2
-1.12,0.46,8.42,18.33,22.06,-4.92
-1.06,0.96,9.19,16.07,19.37,-2.3
-0.65,1.1,9.15,9.85,14.74,5.62
-0.6,0.87,9,6.13,10.65,12.03
-0.71,0.91,8.74,1.8,4.13,13.86
-1,0.89,8.87,-1.55,2.48,8.06
-1.08,0.98,8.92,-5.39,-1.36,2.39
-1.17,0.79,9.08,-10.45,-7.88,-1.75
-1.3,0.37,9.02,-10.88,-15.2,-12.06
-1.22,0.54,9.15,-12.65,-23.92,-21.39
-0.73,0.97,8.78,-12.04,-27.7,-22.3
-0.55,0.84,8.74,-13.69,-19.34,-18.7
-0.51,1.15,8.8,-13.38,-8.19,-11.14
-0.59,0.52,9.03,-13.26,-7.39,-6.39
-0.71,13.96,8.04,-47.28,-22.58,-8.64
-0.87,0.15,9.21,-5.27,-13.06,-2.73
-0.4,0.7,9.21,-7.47,-4.53,-0.53
-0.46,0.61,8.82,-7.04,0.23,-0.9
-0.49,0.72,9.09,-4.3,4.19,-0.11
-0.57,0.67,9.18,-2.34,3.64,-0.72
-0.64,0.78,9.42,-1,2.55,-0.96
-0.76,0.8,9.7,-0.45,-0.32,-1.94
-0.59,0.92,9.87,-8.69,0.72,-4.38
-0.33,0.68,9.9,-14.23,6.69,-2.18
-0.53,0.81,10.27,-18.99,9.13,0.81
-0.76,0.82,10.79,-25.03,9.01,-0.72
-0.52,0.67,10.71,-31,11.14,-1.51
-0.51,0.42,10.92,-34.97,16.08,0.2
-0.75,0.35,10.8,-36.98,22.3,-0.6
-0.79,0.54,10.85,-42.4,29.86,-3.46
-0.67,0.32,10.83,-50.09,39.74,-1.63
-1,0.11,10.88,-58.81,42,2.39
-1.64,-0.19,10.66,-61.31,33.64,1.66
-1.84,-0.39,10.35,-66,30.9,-1.63
-1.89,-0.77,10.63,-66.67,28.95,-3.03
-1.84,-0.84,10.72,-71.67,31.2,-5.05
-2.14,-0.42,11.96,-75.03,33.15,-6.2
-2.09,-0.4,12.33,-89.78,39.07,-12.36
-1.77,-0.94,11.9,-103.38,44.86,-11.69
-1.82,-1.49,11.06,-108.38,47.06,-9.01
-2.24,-1.79,10.5,-110.39,42.91,-8.77
-2.44,-1.62,10.51,-113.99,35.17,-11.08
-2.23,-1.78,10.32,-115.82,41.14,-12.49
-1.97,-2.12,9.57,-119.6,47.36,-8.89
-2.08,-2.15,8.93,-126.92,58.22,-8.16
-2.23,-2.67,8.03,-130.45,58.95,-7.61
-2.22,-2.99,7.34,-126.92,54.5,-6.81
-2.25,-2.8,7.05,-124.84,50.72,-8.64
-2.49,-3.07,7.26,-119.29,50.35,-6.63
-2.66,-3.05,6.85,-122.53,45.11,-5.6
-3.08,-3.47,6.27,-124.96,31.81,-10.23
-2.93,-3.96,5.8,-121.92,20.78,-13.77
-2.53,-4.27,5.66,-122.65,17.79,-16.14
-2.42,-4.86,5.26,-119.9,18.15,-14.8
-2.61,-4.86,4.93,-118.56,16.26,-13.46
-2.63,-5.39,4.59,-114.05,10.11,-13.46
-2.74,-5.56,4.43,-110.39,0.96,-14.74
-2.72,-5.78,4.63,-111.18,-3.98,-15.84
-2.8,-5.82,4.86,-107.95,-9.83,-14.92
-2.36,-6.21,4.39,-108.93,-6.3,-14.07
-1.98,-6.32,3.61,-109.48,7.61,-12.49
-2.26,-6.72,2.73,-111.49,13.89,-9.86
-2.31,-7.1,2.26,-102.65,9.19,-5.6
-2.68,-6.79,2.29,-97.28,0.72,-1.45
-2.35,-7.46,1.72,-95.09,0.59,0.81
-2.46,-7.34,1.72,-88.26,3.03,2.27
-2.41,-7.64,1.44,-86.73,8.64,2.45
-2.49,-8.01,1.08,-81.79,12.67,2.21
-2.79,-8.05,1.04,-75.94,11.81,5.56
-3.06,-8.14,0.85,-71.25,5.78,5.81
-3.17,-8.3,0.56,-65.82,2.48,4.34
-3.18,-8.32,0.41,-62.95,-0.26,4.16
-3.38,-8.63,0.01,-56.12,-2.82,3.86
-3.18,-8.57,-0.33,-54.84,-1.48,3
-3.21,-8.96,-0.72,-45.45,2.24,5.38
-3.3,-8.84,-0.91,-37.53,4.92,5.62
-3.44,-9.02,-1.04,-30.21,0.17,6.84
-3.32,-8.97,-0.86,-22.59,-2.03,4.77
-3.35,-8.87,-0.6,-17.65,-0.5,1.9
-3.18,-9.01,-0.46,-12.16,2.85,3.55
-3.37,-9.03,-0.46,-7.1,7.18,5.93
-3.88,-9.09,-0.54,-1.55,5.41,7.09
-4.09,-9.02,-0.44,3.94,2.06,3.98
-3.91,-8.95,-0.45,7.84,-0.69,-1.02
-3.66,-8.99,-0.47,12.9,-0.63,-3.28
-3.65,-8.89,-0.96,16.92,-2.33,-4.44
-3.78,-9.06,-1.21,25.4,-10.44,-4.31
-3.73,-9,-1.32,34.91,-24.53,-4.31
-3.35,-8.63,-1.01,42.11,-30.56,-9.74
-2.81,-8.8,-1.02,50.22,-22.09,-8.03
-2.83,-8.66,-0.5,59.73,-14.77,-4.44
-3.28,-8.3,-0.01,66.07,-16.84,-3.1
-3.55,-8.15,0.43,70.95,-22.03,-6.02
-3.35,-8.18,0.59,74.3,-26.3,-11.51
-2.75,-8.25,0.77,79.67,-32.39,-11.27
-2.64,-8.05,1.41,87.17,-41.97,-6.88
-2.82,-7.68,2.19,92.23,-48.37,-5.72
-2.54,-7.26,2.86,89.42,-44.71,-7.79
-2.69,-7.27,3.19,86.44,-41.54,-10.29
-2.33,-7.46,3.12,86.68,-37.15,-14.25
-2.3,-7.34,3.31,90.83,-38.73,-11.51
-2.05,-7.09,3.9,92.59,-38.37,-9.31
-2.27,-6.85,4.51,92.66,-41.11,-4.8
-2.56,-6.59,4.56,90.89,-53.49,-6.51
-1.35,-6.35,4.99,91.07,-27.7,-14.38
-0.89,-6.22,5.11,90.09,13.89,-12.79
-1.86,-6.49,5.52,93.08,7.85,-4.44
-2.91,-6.28,5.21,91.62,-39.34,1.23
-2.52,-5.85,4.89,94.85,-82.94,-4.13
0.04,-5.45,5.31,96.98,-36.78,-11.39
0.45,-5.36,5.25,96.5,31.81,-1.27
-2.21,-5.01,5.58,93.02,16.57,8.25
-3.88,-5.14,5.14,90.4,-77.09,8.37
-1.32,-5.03,4.74,106.92,-91.11,-11.88
1.7,-4.13,6.47,115.83,7.55,-8.77
0.31,-3.65,6.89,102.41,74.37,6.97
-2.25,-3.76,6.11,91.92,49.68,18.61
-4.82,-3.9,5.99,94.55,-67.15,21.17
-4.46,-3.62,4.85,94.12,-171.42,1.23
0.36,-2.64,6.31,115.64,-100.81,-42
2.55,-1.8,9.25,114.55,67.61,-38.22
-0.79,-2.12,10.48,87.96,111.02,-5.05
-3.32,-3.01,8.82,84.91,29.44,9.1
-3.51,-3.31,7.13,99.12,-52.88,6.66
-1.73,-2.94,6.89,124.3,-63.67,-14.99
0.15,-0.83,10.4,119.18,34.01,-30.66
-0.03,-1.93,10.25,109.06,94.37,-8.22
-2.6,-2.61,9.62,116.19,30.53,19.53
-3.15,-1.76,8.98,126.31,-41.72,25.08
-2.1,-0.7,9.25,130.09,-56.48,11.42
-0.44,-0.4,10.31,129.06,-3.61,0.5
-0.95,0.06,11.21,107.47,33.15,12.33
-2.29,-0.37,10.35,103.57,-2.52,24.83
-2.67,-0.1,9.99,108.75,-64.71,31.17
-2.09,0.36,9.75,104.85,-86.97,17.27
-0.11,2.11,11.66,97.47,-16.42,-1.33
-0.28,2.06,12.6,75.22,47.79,5.44
-1.94,1.38,11.93,57.9,34.07,10.08
-2.73,1.54,11.39,48.88,-22.09,11.17
-2.25,1.16,11.43,51.86,-55.69,7.21
0.39,1.25,7.38,18.75,6.57,1.3
-1.05,0.57,9.15,18.57,7.97,10.14
-1.11,0.62,9.15,13.94,8.52,4.59
-1,0.47,8.99,8.94,8.46,0.62
-1.11,0.58,9.02,4.97,3.52,-1.33
-1.07,0.53,9.05,0.89,-1.24,-1.94
-1.04,0.59,9.17,-7.16,-7.27,-3.7
-1.18,0.13,9.02,-13.44,-11.05,-10.96
-1.22,0.41,8.92,-15.27,-14.83,-17.42
-0.98,0.97,8.95,-15.45,-18.86,-16.2
-0.75,1.41,8.54,-17.4,-15.26,-5.23
-0.84,0.47,8.9,-18.2,-10.02,0.08
-0.8,0.38,9.09,-13.14,-5.14,1.78
1.61,-19.6,4.66,-110.76,-31.6,-18.52
-1.28,-0.05,9.34,-13.2,-6.42,-3.95
-0.84,0.31,9.26,-10.88,-4.16,-3.95
-0.78,0.19,9.05,-10.21,-5.14,-5.35
-0.7,0.52,9.44,-12.65,-1.36,-2.61
-0.65,0.35,9.54,-12.22,5.47,0.93
-0.81,0.6,10.01,-13.62,6.69,1.42
-0.8,0.51,10.3,-14.17,7.55,1.36
-0.76,0.4,10.43,-15.15,10.05,-0.47
-0.99,0.51,10.82,-22.1,12.67,-3.4
-0.88,0.62,11.54,-32.47,10.35,-3.03
-0.6,0.82,12.17,-43.2,20.9,-0.05
-0.61,0.67,12.78,-56.61,30.35,5.44
-1.03,0.51,12.82,-68.38,37.91,6.42
-1.33,-0.07,12.54,-77.77,38.22,1.72
-1.4,-0.71,12.26,-87.46,43.64,-2.55
-1.89,-0.76,12.07,-93.56,33.64,-4.74
-2.06,-0.85,12.04,-101.43,34.92,-7.61
-2.12,-0.98,12.43,-112.04,42.18,-7.3
-2.8,-1.53,12.54,-117.59,39.07,-7.06
-3.02,-1.54,12.53,-125.64,31.94,-13.7
-2.81,-1.65,12.22,-134.72,29.07,-17.18
-2.34,-2.18,11.25,-140.76,35.11,-18.4
-2.26,-2.07,10.27,-146.79,40.04,-14.74
-2.26,-2.04,10.42,-151.06,44.5,-12
-1.95,-2.48,8.93,-158.87,51.39,-10.78
-2.51,-2.63,8.25,-162.34,41.51,-7.85
-2.25,-3.32,7.19,-158.38,33.4,-11.75
-1.86,-3,6.83,-158.56,28.28,-14.56
-1.31,-3.24,6.05,-156.18,29.25,-12.42
-1.17,-3.79,5.13,-153.87,32.54,-8.34
-1.34,-3.97,4.53,-148.68,24.01,-3.89
-1.68,-3.98,4.65,-141.92,14.37,-0.96
-1.35,-4.3,3.63,-145.09,7.61,-1.57
-1.51,-4.66,3.04,-133.38,5.47,1.84
-1.52,-5.15,2.68,-128.44,9.92,2.45
-1.43,-5.44,2.73,-117.89,14.92,5.38
-1.65,-5.64,2.53,-117.22,18.34,8.92
-1.9,-6.02,2.04,-118.62,17.67,10.08
-2.31,-6.17,1.44,-115.51,13.64,8.92
-2.64,-6.33,1.38,-111.55,7.61,6.05
-2.45,-6.98,0.58,-109.96,17.73,-0.78
-2.6,-7.41,0.07,-99.29,16.45,2.15
-2.76,-7.72,-0.02,-88.26,7.36,6.72
-2.57,-7.96,-0.15,-82.4,8.28,6.42
-2.81,-7.83,0.07,-74.05,18.52,5.5
-3.2,-8.16,0.26,-68.38,20.47,5.08
-3.35,-8.45,0.02,-64.72,8.4,3.19
-3,-8.58,-0.17,-59.66,3.83,0.5
-2.56,-8.68,-0.31,-54.9,11.39,1.6
-2.53,-8.81,-0.56,-48.08,15.29,4.71
-2.67,-9.03,-0.71,-41.49,17.36,6.66
-2.8,-8.97,-1.13,-35.03,13.22,8.92
-2.82,-9.01,-1.46,-27.77,9.62,11.48
-3.16,-9.23,-1.36,-18.26,3.64,15.44
-3.46,-9.22,-1.19,-9.3,-2.7,15.93
-3.6,-9.08,-0.93,-4.17,-3.37,14.53
-3.73,-8.89,-0.42,1.74,4.19,13.92
-4.31,-8.78,-0.31,2.47,5.17,10.93
-4.68,-8.99,-0.75,5.34,-4.28,6.97
-4.82,-9.04,-1.34,11.07,-17.09,2.45
-4.38,-8.96,-1.67,18.51,-24.89,-3.03
-3.61,-8.98,-1.74,28.81,-16.66,-7.06
-3.46,-8.88,-1.59,38.75,-7.52,-6.88
-3.85,-8.52,-1.36,46.62,-9.77,-6.94
-4,-8.65,-1.24,53.94,-27.21,-8.58
-3.77,-8.59,-1.12,61.56,-49.83,-12.18
-3.01,-8.44,-0.86,69.3,-58.13,-15.84
-2.5,-8.24,-0.47,75.4,-52.76,-17.24
-2.25,-8.11,0.17,83.2,-43.19,-15.29
-2.53,-8.24,0.95,91.8,-48.25,-5.72
-2.93,-7.78,1.6,94.79,-55.2,-4.19
-2.87,-7.26,2.44,95.03,-53.49,-11.2
-2.19,-7.27,2.93,91.86,-33.31,-17.97
-2.73,-7.33,3.44,92.9,-39.53,-12.79
-2.65,-7.21,4.15,93.2,-50.5,-10.11
-2.27,-7.09,4.69,92.78,-45.69,-10.72
-1.99,-6.76,5.28,87.35,-22.58,-13.16
-3.13,-6.89,5.12,80.89,-31.97,-14.99
-3,-7.28,3.97,80.22,-68,-19.44
-0.63,-6.95,4.56,89.48,-38,-22.24
-0.52,-6.33,5.31,86.37,5.72,-9.86
-2.73,-5.89,5.9,80.22,-1.6,-6.75
-3.75,-6.22,4.91,75.89,-55.2,-9.92
-2.25,-6.81,4.14,89,-79.16,-25.47
0.39,-5.63,5.55,92.05,-27.09,-22.67
0.07,-5.47,5.68,86.07,10.84,-9.25
-2.44,-5.16,5.13,81.01,-23,-3.16
-2.6,-5.14,3.89,88.63,-82.15,-8.95
0.81,-5.18,4.59,102.66,-35.26,-22
0.75,-3.51,6.57,86.44,33.46,-8.28
-2.28,-4.07,5.77,74.36,15.04,3.43
-3.93,-4.86,3.63,89.79,-63.67,-3.22
-0.97,-4.28,4.59,116.86,-66.78,-38.4
1.75,-2.27,8.58,103.75,19.8,-26.45
0.5,-3.47,8.27,91.19,56.39,3.67
-2.78,-3.66,6.7,95.58,10.41,13.19
-3.1,-3.64,6.3,113.45,-43.43,-9.99
-0.17,-3.01,7.55,125.22,-9.53,-20.96
-0.15,-2.5,8.82,116.8,26.08,-4.5
-1.53,-2.33,8.34,109.42,22.42,8.73
-2.53,-3.07,6.87,120.28,-14.71,9.28
-1.82,-2.76,7.57,144,-34.22,-1.27
-0.52,-1.06,9.68,144.61,-1.36,-1.39
-0.65,-1.1,9.83,142.23,38.64,13.73
-2.9,-0.88,9.43,141.68,11.39,19.95
-3.53,-0.06,9.84,139.18,-56.48,8.25
-0.94,0.73,11.51,136.86,-51.48,-8.64
0.54,1.78,14.49,116.86,19.01,-2.61
-0.67,1.09,14.02,97.84,39.13,12.58
-2.18,1.03,13.23,88.94,-2.52,14.47
-2.38,0.99,12.13,84,-46.05,5.62
-0.3,1.76,12.91,75.7,-21.17,-5.11
-0.08,1.75,13.77,54.55,12.54,-1.02
-0.91,1.02,13.12,37.59,7.36,5.87
-1.44,1.3,11.82,30.28,-13.49,5.5
-1.16,0.93,11.63,22.53,-32.52,3.86
-0.41,1.06,11.62,14.18,-11.6,-0.72
-0.45,0.91,11.54,7.72,4.01,4.04
-1.2,0.84,10.61,1.25,-1.91,3.61
-1.26,0.79,10.48,-0.45,-10.08,2.21
-0.91,0.85,10.03,-2.71,-8.19,2.03
-0.75,0.82,9.94,-7.4,1.45,4.22
-0.99,0.56,9.28,-9.72,1.14,5.87
-1.32,0.8,9.04,-11.06,-4.77,4.71
-1.07,0.63,8.82,-12.16,-10.56,4.16
-0.85,0.77,8.72,-12.1,-3.67,3.12
-0.81,0.84,8.84,11.44,8.64,4.65
-0.73,0.34,9.01,11.99,7.3,6.17
-0.62,0.39,8.91,8.51,5.47,4.89
-0.69,0.34,9.01,5.64,6.45,3.31
-0.87,0.43,9.09,1.86,0.72,2.09
-0.99,0.5,9.2,-2.77,-4.47,0.87
-0.72,0.29,9.1,-6.19,-5.26,0.14
-0.81,0.1,9.04,-8.01,-3.92,-4.44
-1,0.49,9.27,-13.81,-5.69,-11.51
-1.09,0.45,9.06,-22.47,-7.76,-18.52
-0.89,0.78,9.07,-19.36,-7.03,-14.07
-0.69,0.49,9.58,-18.81,-6.6,-9.25
-0.77,0.38,9.94,-20.21,-6.11,-2.55
1.03,-19.6,6.95,-107.83,-39.71,-24.25
-1.42,-0.38,10.5,-20.45,-7.94,-5.84
-0.72,-0.04,10.09,-22.89,-3.49,-4.99
-0.82,-0.27,10.26,-22.77,-4.41,-5.72
-0.98,-0.11,10.78,-20.88,-5.69,-5.78
-0.93,0.06,11.16,-22.65,0.41,-5.41
-0.7,0.01,11.48,-31.37,13.83,-5.78
-0.71,0.11,11.6,-42.59,27.3,-3.52
-0.77,-0.26,11.65,-55.03,30.84,-1.88
-0.62,-0.39,11.59,-60.7,35.23,0.26
-0.79,-0.48,11.63,-69.36,37.97,2.21
-1.16,-0.7,11.54,-73.2,36.93,4.4
-1.58,-0.95,11.26,-79.36,29.44,2.21
-1.48,-1.04,10.79,-83.62,30.35,-2.3
-1.39,-1.51,11.25,-86.37,33.15,-1.39
-1.63,-1.5,11.16,-92.46,32.06,-0.41
-1.74,-1.79,11.19,-93.87,31.45,-2.24
-1.82,-1.69,11.2,-104.96,29.37,-2.55
-1.94,-2.01,10.93,-108.01,26.87,-4.56
-2.22,-2.11,11.17,-109.78,19.01,-6.81
-1.55,-2.33,10.43,-116.67,17.3,-9.07
-1.01,-2.31,10.33,-119.17,32.61,-4.38
-1.17,-2.23,9.71,-132.16,47.12,-1.08
-1.43,-2.42,9.14,-142.22,50.35,-0.35
-1.55,-2.56,8.9,-143.81,40.17,1.78
-1.46,-2.78,7.76,-151.98,46.63,1.48
-1.29,-3.2,6.91,-149.6,56.14,4.34
-1.46,-3.34,5.94,-152.4,61.75,3.49
-2.03,-3.44,6.08,-153.74,57.61,2.76
-2.17,-3.97,5.52,-154.29,47,3.55
-2.54,-4.74,5.07,-150.64,27.36,5.87
-2.73,-4.36,4.69,-151.79,12.79,3.19
-2.29,-4.73,4.45,-152.34,25.9,0.93
-1.96,-5.38,3.05,-151.61,44.98,0.01
-2.69,-5.52,2.73,-144.84,46.33,1.54
-2.94,-5.85,2.26,-138.74,35.53,0.32
-2.96,-6,1.89,-135.15,32.06,-1.51
-2.95,-6.11,1.37,-134.48,34.92,-2.85
-2.8,-6.71,0.44,-128.01,33.34,-2.3
-2.96,-7.33,0.08,-113.56,32.24,-2.67
-3.04,-7.49,-0.24,-105.76,27.54,-5.53
-2.91,-7.41,-0.82,-100.15,19.98,-6.08
-2.54,-7.69,-1.17,-91.98,17.06,-4.8
-2.62,-8.17,-1.9,-81.06,5.72,-1.51
-2.7,-8.4,-2.12,-68.26,2.73,-0.11
-2.76,-8.43,-2.2,-56.86,5.84,0.44
-3,-8.71,-1.81,-45.7,9.8,2.82
-3.3,-8.76,-1.82,-37.83,7.73,2.45
-3.49,-8.83,-1.83,-29.48,-4.35,2.39
-3.37,-8.97,-1.81,-21.06,-16.3,2.64
-3.22,-9.05,-1.59,-12.34,-16.72,3.92
-3.17,-8.92,-1.34,-7.77,-6.36,2.21
-3.03,-9,-1.17,-1.67,3.83,3.49
-3.52,-9.11,-0.87,1.86,3.95,6.3
-3.87,-9.15,-0.85,9.12,2.55,5.08
-3.95,-9.19,-0.62,14.55,-2.33,5.08
-4.06,-8.87,-0.93,16.38,-13.13,4.83
-4.43,-8.75,-1.2,20.28,-25.2,1.97
-4,-8.96,-1.8,28.63,-24.89,-2.42
-3.58,-8.85,-1.51,38.33,-18.86,-3.58
-3.57,-8.83,-1.54,47.23,-19.1,-3.83
-3.4,-8.74,-1.62,56.92,-25.99,-4.13
-3.46,-8.46,-1.43,63.87,-39.41,-2.73
-3.45,-8.16,-1.2,72.17,-55.75,-3.52
-2.76,-8.05,-0.98,81.13,-56.72,-6.08
-2.23,-7.73,-0.42,89.91,-43.92,-3.58
-2.27,-7.57,-0.17,97.59,-31.17,0.2
-2.91,-7.31,0.04,106.62,-33.25,2.09
-2.95,-6.88,0.66,113.51,-43.98,-1.81
-2.34,-6.59,1.29,116.25,-34.41,-8.4
-1.97,-6.93,1.36,122.96,-22.45,-3.64
-2.87,-6.45,1.58,130.28,-36.6,2.03
-3.44,-6.24,1.65,135.52,-74.04,-0.35
-2.34,-5.37,2.83,139.97,-71.42,-14.86
-1.24,-5.26,4.52,140.95,-36.91,-13.16
-2.2,-4.97,5.99,137.11,-35.69,-6.02
-3.18,-5.55,6.28,138.57,-71.05,-4.62
-2.29,-4.6,7.33,141.01,-92.58,-10.96
0.28,-4.51,7.54,135.34,-35.56,-13.58
0.05,-4.34,6.87,126.8,26.81,-5.9
-2.96,-4.39,7.21,123.33,-12.64,1.78
-3.7,-4.12,6.91,119.55,-103.92,-2.06
0.27,-3.38,8.9,120.89,-71.36,-20.84
1.44,-3.31,9.98,108.69,19.56,-8.52
-0.64,-3.15,9.55,93.87,49.19,8
-2.81,-4.39,7.96,92.72,-0.44,13.06
-3.71,-3.91,6.74,96.25,-86.66,11.54
-1.06,-2.98,7.96,107.23,-80.08,-11.94
0.84,-1.9,10.71,89.79,5.96,-11.94
-0.36,-2.9,9.98,79.48,49.37,9.34
-2.81,-3.53,8.4,83.51,12.36,21.6
-4.06,-3.82,6.84,96.07,-65.26,19.22
-2.69,-2.75,6.95,110.28,-96.91,-4.92
0.24,-2.34,8.12,114.48,-34.47,-12.61
-0.62,-1.79,9.04,101.86,17.42,3.49
-2.81,-1.98,8.15,98.2,-15.32,11.6
-3.53,-2.15,7.21,104.36,-88.12,13.12
-1.12,-0.83,8.39,118.81,-85.56,-12.12
1.19,-0.2,10.49,115.15,3.03,-10.41
-0.77,0.1,10.97,102.66,18.46,0.26
-2.25,0.21,10.46,96.37,-26.72,-0.05
-1.99,0.4,9.84,95.34,-74.53,-3.64
0.72,1,11.31,93.81,-32.27,-14.13
1.21,1.83,12.78,75.16,38.95,-5.78
-0.22,1.23,12.1,65.64,44.13,3.06
-1.13,1.33,11.04,60.34,6.33,5.26
-1.45,1.1,10.54,63.33,-38,6.66
-0.55,1.59,10.43,58.08,-49.89,0.44
0.59,1.94,11.29,56.01,-6.42,-2.18
-0.26,1.93,11.71,42.41,13.64,1.72
-1.1,1.96,11.09,33.2,-0.63,0.87
-1.02,1.84,10.71,27.9,-20.02,-0.41
-0.27,1.83,10.66,23.75,-18.25,-1.88
0.21,1.89,10.86,16.31,3.76,-0.05
-0.39,1.81,10.44,12.23,9.31,4.4
-0.95,1.87,10.23,7.29,0.23,4.1
-1.05,1.61,9.72,4.97,-9.89,3.37
-0.73,1.63,9.65,2.78,-16.91,0.44
-0.14,1.51,9.85,0.95,-2.82,0.93
-0.46,1.58,9.69,-2.65,7.24,3.8
-0.9,1.51,9.67,-6.06,4.25,2.03
-0.77,1.43,9.24,-6.86,-1.85,2.64
-0.72,1.54,9.2,-8.01,-5.2,2.82
-0.65,1.52,9.03,-10.03,-5.44,1.6
-0.62,1.51,8.95,-9.23,-1.72,1.05
-0.78,1.42,8.82,-10.27,-2.52,1.3
-0.74,1.51,8.58,-8.56,-1.97,-0.47
-2.56,0.61,8.94,15.77,4.19,0.81
-1.34,0.57,9.09,13.69,10.9,0.56
-1.4,0.64,9.2,12.23,11.57,-2
-1.19,0.69,8.93,11.74,10.59,-2.73
-1.2,0.58,8.85,8.02,2.73,-0.9
-1.09,0.45,8.9,4.36,0.11,0.14
-1.08,0.59,8.93,0.89,-0.99,1.3
-1.37,0.74,8.99,-4.6,-6.42,-1.08
-1.38,0.53,8.9,-8.26,-10.08,-4.25
-1.45,0.7,9.01,-13.93,-14.53,-11.45
-1.35,0.65,9.01,-17.71,-19.77,-17.36
-0.77,0.63,8.79,-16.79,-18.37,-14.19
-0.83,0.37,8.77,-16,-16.78,-8.95
-0.51,0.42,8.65,-10.09,-12.27,-1.08
-1.83,19.6,9.98,-72.47,-34.04,-11.33
-1.04,0.14,9.36,-9.23,-8.92,0.38
-0.93,0.25,9.34,-6.8,-4.16,1.36
-0.83,0.16,8.82,-2.89,0.11,-0.66
-0.93,0.26,8.78,0.77,-1.66,-1.45
-0.87,0.23,8.69,4.61,-0.32,-2.55
-0.91,0.36,8.76,6.74,0.29,-2.49
-0.87,0.37,8.93,4.55,-2.09,-1.63
-0.93,0.68,9.05,1.68,-1.11,-0.11
-0.85,0.37,8.96,-0.15,-0.87,-0.53
-0.9,0.46,9.17,-1.37,-1.17,-0.47
-0.84,0.49,9.27,-2.1,0.72,-1.69
-0.73,0.33,9.3,-1.67,5.29,-0.41
-0.91,0.63,9.43,-3.08,4.19,2.45
-0.95,0.47,9.58,-2.77,2.24,2.33
-1.11,0.51,9.61,-4.97,-0.26,1.3
-1.15,0.59,10.12,-9.48,-1.11,1.54
-1.2,0.68,10.42,-13.5,1.51,0.99
-1.28,0.73,10.85,-18.75,3.4,-1.08
-1.29,0.57,10.77,-24.23,3.09,-1.2
-1.32,0.52,11.02,-26.86,3.7,-3.34
-1.04,0.28,11.37,-32.16,6.87,-5.23
-1.09,0.45,11.18,-40.88,8.52,-4.38
-0.94,0.28,11.41,-46.73,7.79,-3.03
-1.02,0.28,11.75,-57.59,6.94,-1.08
-0.95,0.13,11.06,-66.37,12.42,0.5
-1.17,-0.33,11.04,-66.79,17.79,-2
-1.43,-0.3,11.03,-71.98,15.23,-2.73
-1.41,-0.61,11.26,-77.53,11.63,-4.92
-1.05,-0.92,11.04,-82.77,17.12,-3.7
-1.49,-0.71,11.49,-91.61,18.76,-5.53
-1.17,-1.16,10.84,-98.68,28.09,-7.24
-1.26,-1.36,10.71,-103.62,29.37,-5.66
-1.51,-1.59,10.56,-108.32,26.57,-2.79
-1.43,-1.91,10.11,-114.42,24.86,-1.81
-1.33,-2.2,9.76,-115.21,31.39,0.2
-1.39,-2.18,9.91,-120.57,36.93,1.6
-1.44,-2.3,9.5,-128.62,41.63,2.94
-1.3,-2.68,8.81,-128.56,51.33,2.64
-1.42,-2.78,8.63,-132.89,61.14,3.06
-1.67,-3.1,8.04,-135.82,56.69,4.77
-1.98,-3.05,7.61,-140.64,47.91,1.54
-1.91,-3.59,7.35,-139.11,42.06,2.58
-1.94,-3.74,6.96,-140.03,36.45,0.81
-1.95,-3.81,6.42,-140.33,34.44,0.01
-1.68,-4.09,6.13,-141.73,38.58,-1.08
-2.07,-4.24,5.91,-143.07,42.79,-0.35
-2.5,-4.42,5.29,-145.82,32.36,-1.51
-2.68,-5.21,4.54,-143.32,22.97,-2.97
-2.37,-5.48,3.49,-140.64,14.07,-4.5
-2.38,-5.16,3.46,-138.56,8.4,-1.14
-2.39,-5.79,2.93,-134.35,9.92,-2.55
-2.3,-6.16,2.51,-127.59,17.36,-2.55
-2.6,-6.21,2.65,-125.03,22.79,-2.67
-2.61,-6.54,1.97,-118.93,26.33,-0.9
-2.78,-6.87,1.44,-115.57,25.72,-1.2
-3,-7.37,0.72,-107.71,10.78,-1.2
-3.11,-7.4,0.19,-102.28,6.2,-3.77
-3.06,-7.59,-0.33,-94.66,11.63,-4.13
-2.99,-7.87,-1.01,-87.59,25.35,-3.52
-3.08,-8.42,-1.12,-74.54,35.41,-2.49
-3.17,-8.43,-1.83,-67.77,30.72,-2.36
-3.39,-8.67,-1.9,-54.66,15.53,-2.79
-3.61,-8.8,-1.84,-43.81,-6.78,-4.38
-3.2,-8.78,-1.89,-34.78,-16.17,-3.89
-2.76,-9.09,-1.73,-24.72,-12.64,-1.45
-2.54,-8.97,-1.54,-14.78,2.3,0.08
-2.57,-8.98,-1.06,-9.17,13.4,3.92
-3.15,-9.08,-0.75,-2.95,17.79,6.6
-3.7,-8.9,-0.19,0.83,8.58,5.81
-3.85,-8.95,0.06,3.69,-4.77,2.7
-3.37,-9.05,0.43,5.77,-10.75,0.93
-3.29,-8.99,1.01,7.53,-5.02,1.3
-3.24,-9.02,1.23,7.78,6.51,0.44
-3.52,-9.12,1.16,6.74,11.26,1.42
-3.93,-9.13,1.23,6.56,5.29,1.11
-4.05,-9.14,1.47,5.16,-4.35,-2.42
-4.04,-9.03,1.26,2.47,-13.19,-7.24
-3.36,-9.09,0.83,1.38,-13.49,-10.41
-2.79,-9.07,0.78,3.88,-0.38,-6.88
-2.66,-9.3,0.64,7.66,14.74,-0.6
-3.42,-8.92,0.89,8.63,15.78,0.93
-3.93,-8.92,0.68,8.45,3.34,-1.94
-4.03,-8.98,0.27,9.55,-14.95,-6.39
-3.59,-8.91,-0.26,13.45,-27.03,-8.7
-2.73,-8.89,-0.36,20.58,-21.48,-6.51
-2.21,-8.91,-0.45,27.17,-6.85,-1.27
-2.5,-8.82,-0.72,33.57,-1.3,3.73
-3.21,-8.56,-0.71,41.68,-10.38,5.56
-3.66,-8.56,-0.88,48.27,-29.59,3.73
-3.34,-8.23,-0.94,55.89,-43.06,-2.91
-2.41,-8.34,-0.41,67.05,-29.71,-2.67
-2.34,-8.09,0.01,75.58,-10.56,1.36
-3.39,-7.81,0.61,81.44,-15.69,3.25
-3.76,-7.81,0.66,85.03,-36.54,-3.34
-3.42,-7.65,1.56,91.13,-52.58,-8.16
-2.41,-7.62,2.32,91.62,-44.28,-10.78
-2.09,-7.56,2.54,95.34,-30.14,-6.63
-2.8,-7.6,2.87,100.22,-33.74,-2.3
-3.74,-6.96,3.05,97.47,-64.04,-6.69
-3.52,-6.96,3.67,99.24,-85.99,-15.53
-1.77,-6.75,4.34,96.92,-66.48,-25.41
-1.09,-6.86,4.9,97.05,-28.06,-22.67
-1.45,-7.15,4.8,97.66,-15.08,-21.57
-1.97,-7.01,4.45,96.31,-32.27,-13.4
-2.44,-6.75,4.08,97.11,-64.95,-12.73
-0.88,-6.13,5.25,102.47,-54.83,-21.57
0.33,-5.58,6.34,96.37,-10.14,-17.12
-0.21,-5.92,6.29,89.67,13.34,-4.99
-1.65,-6.23,5.37,92.66,-12.64,7.03
-2.25,-5.8,4.49,98.75,-57.52,8.61
-0.23,-4.87,5.11,108.2,-44.16,-3.83
0.86,-4.2,6.59,106.68,23.03,-1.51
-0.5,-4.05,7.03,95.09,43.46,13.37
-1.83,-4.36,6.09,97.11,7.91,27.82
-3.35,-4.16,5.64,102.41,-72.52,25.99
-1.89,-3.7,5.8,109.06,-105.93,0.75
1.06,-3.23,6.43,118.87,-42.64,-2.85
1.07,-2.85,6.34,118.75,29.19,12.94
-1.11,-3.13,5.52,126.86,48.15,32.51
-3.93,-1.48,6.45,130.46,-30.08,40.56
-5.35,-0.74,7.33,116.98,-140.93,9.83
-0.75,-1.15,8.14,131.92,-133.73,-36.14
3.67,-1.79,9.6,140.7,-5.75,-16.63
1.41,-1.67,9.69,147.78,76.02,18.37
-2.66,-0.21,10.45,141.62,27.42,26.23
-1.83,0.16,8.35,9.13,1.87,23.05
-0.53,-0.48,9.2,13.09,13.58,24.76
-0.48,-0.36,9.07,13.7,12.72,25.98
-0.71,-0.45,9.37,21.14,-0.26,25.12
-0.42,-0.33,9.12,16.69,-1.36,26.4
-0.46,-0.29,8.93,14.37,-2.7,27.14
-0.49,-0.4,8.76,12.42,-4.41,25.43
-0.71,-0.41,8.85,11.57,-12.58,21.89
-0.66,-0.52,8.85,8.03,-21.54,15.85
-0.63,-0.45,8.85,6.33,-28.56,4.64
-0.47,0.03,8.67,6.63,-24.35,-7.32
-0.5,0.15,8.75,1.75,-12.76,-8.05
-6.85,4.7,13.57,-92.39,1.02,3.54
-0.04,-0.37,9.25,-1.78,-6.48,9.88
0.08,0.14,8.79,1.63,-3.92,15.49
-0.14,-0.36,9.04,4.01,-2.76,19.09
-0.26,-0.05,9.03,6.87,-1.18,17.38
-0.53,-0.14,9.14,5.9,-2.58,17.2
-0.42,-0.03,8.88,7.91,-7.52,14.76
-0.22,0.05,9.08,11.33,-9.53,14.27
-0.06,-0.03,9.13,15.04,-10.51,14.03
-0.52,0.11,9.29,8.22,-7.03,10.37
-0.34,0.07,9.15,4.62,-8.8,10.25
-0.21,-0.09,9.03,5.41,-6.79,11.71
-0.31,-0.08,8.98,4.37,-5.39,11.89
-0.52,0.03,8.8,4.62,-3.07,9.94
-0.57,0.25,8.93,9.31,-7.64,14.21
-0.38,0.09,9.27,8.09,-8.19,18.23
-0.39,0.27,9.66,5.17,-7.58,22.14
-0.28,0.21,9.56,1.51,-4.23,21.4
-0.3,-0.02,9.72,0.05,-3.31,23.42
-0.52,-0.05,9.94,-1.78,-0.08,22.5
-0.55,-0.04,10.32,-3.13,-4.47,25.49
-0.64,0.17,10.53,-2.82,-12.03,28.84
-0.57,0.15,10.93,-5.5,-12.7,32.26
-0.74,0.19,10.98,-13.49,-5.75,28.17
-0.62,0.55,11.26,-23.25,-2.4,27.99
-0.56,0.08,11.06,-33.19,0.65,29.03
-0.61,0.27,11.19,-39.95,-1.73,27.93
-0.71,0.29,11.11,-48.92,-3.13,26.04
-0.62,0.21,11.24,-57.94,-2.76,23.23
-0.36,0.44,11.7,-71.54,0.41,24.7
0.04,0.12,11.7,-94.34,5.29,27.01
-0.07,0.19,12.04,-116.78,5.71,29.94
-0.31,-0.53,10.66,-128.61,10.96,26.46
-0.63,-0.73,10.08,-128.25,14.43,22.26
-0.51,-1.09,10.1,-130.2,17.42,21.28
-0.51,-1.65,9.92,-130.38,13.21,19.21
-0.47,-1.95,9.81,-129.47,12.36,17.93
-0.61,-1.87,10.16,-128.25,15.77,16.4
-0.56,-2.38,9.75,-128.43,12.6,19.03
-0.76,-2.98,9.09,-126.72,7.79,20.73
-0.4,-3.07,8.83,-121.97,13.88,26.83
0.03,-3.42,8.02,-123.55,16.63,26.46
-0.36,-3.74,7.69,-116.42,11.87,30.24
-0.98,-3.77,8.49,-109.95,2.85,33.66
-0.7,-3.86,7.68,-108.25,2.91,33.54
-0.37,-4.25,6.97,-115.62,20.77,32.32
-0.82,-4.4,6.52,-119.28,36.38,33.96
-0.96,-5.02,5.46,-119.83,40.77,35.67
-1.29,-5.66,5.12,-116.66,31.44,35.85
-1.72,-5.43,4.81,-117.94,29,31.34
-1.81,-5.61,4.83,-120.32,29.25,27.26
-1.62,-5.96,4.35,-123.61,39.92,23.17
-2.12,-5.82,4.48,-124.83,46.69,22.74
-2.24,-6.49,3.95,-124.65,41.44,25.18
-2.41,-6.92,3.34,-124.16,32.6,22.68
-2.04,-7.06,2.67,-124.1,27.6,19.7
-2.01,-7.18,2.16,-125.93,21.38,21.34
-2.11,-7.55,1.9,-123.73,11.5,24.82
-2.32,-7.92,1.3,-115.38,4.68,24.15
-2.56,-8,0.85,-108.61,2.05,20.12
-2.47,-8.06,0.23,-101.6,0.16,12.87
-1.85,-8.48,-0.18,-95.38,-3.8,9.76
-1.49,-8.52,-0.64,-84.22,-10.57,16.53
-1.18,-8.69,-0.87,-77.21,-17.46,25.92
-2.12,-8.84,-0.76,-68.61,-17.76,32.81
-2.28,-8.79,-1.23,-64.53,-11.79,27.14
-3.14,-8.83,-1.1,-54.16,-7.09,17.56
-2.82,-9.23,-1.66,-39.53,-2.34,12.56
-2.65,-9.72,-1.12,-20.08,-4.9,14.88
-2.68,-9.48,-0.6,-13.19,-15.75,17.62
-2.47,-9.38,-0.68,-7.39,-18.13,16.28
-1.94,-9.32,-0.7,-0.63,-5.57,16.95
-1.84,-9.51,-0.9,7.48,12.54,17.32
-2.07,-9.49,-0.89,17.85,21.32,20.85
-2.65,-9.53,-0.54,24.92,14.49,23.05
-2.88,-9.52,-0.51,31.63,-0.87,25
-3.24,-9.54,-0.62,41.57,-15.51,26.46
-3.19,-9.4,-0.58,51.87,-26.36,23.05
-2.93,-9.39,-0.58,59.37,-24.78,18.29
-2.91,-9.44,-0.74,68.82,-15.99,14.7
-3.04,-9.05,-0.47,75.78,-22.76,10.61
-2.21,-8.84,-0.5,78.89,-35.51,7.5
-1.16,-9.01,-0.4,82.97,-33.56,10.73
-1.16,-8.95,0.18,94.56,-19.78,19.57
-1.69,-8.66,1.65,107.3,-13.37,28.05
-2.31,-8.07,1.82,105.11,-22.03,28.9
-2.67,-7.82,1.6,94.92,-36.91,17.81
-1.73,-8.11,-0.3,90.71,-47.52,12.01
-0.87,-8.57,-1.15,105.11,-34.96,15.49
-1.46,-7.85,0.24,129.13,-26.54,27.74
-2.02,-7.14,1.21,144.37,-28.31,29.7
-1.89,-6.03,2.29,143.4,-10.26,23.9
-2.33,-5.65,2.74,133.28,2.6,14.64
-2.72,-5.77,2.28,131.45,-17.46,8.29
-1.9,-5.64,1.54,142.3,-36.67,5
-0.34,-5.03,2.8,160.29,-8.43,9.82
-0.89,-4.13,4.19,164.86,1.32,20.67
-1.34,-3.56,4.56,166.51,-16.06,28.48
-1.1,-2.75,4.81,165.23,-20.14,23.6
-0.93,-2.46,5.3,156.57,-9.71,19.03
-0.6,-2.13,5.13,156.02,17.54,11.89
-0.14,-1.88,5.43,166.51,61.87,8.23
-0.29,-1.51,6.4,168.03,67.97,29.03
-2.73,-0.82,8.31,173.52,-21.85,57.68
-3.96,-0.05,8.84,173.76,-134.1,58.72
-0.69,0.09,8.3,171.26,-90.38,25.92
1.39,0.61,9.27,158.03,89.55,10.31
-2.46,0.22,11.41,141.99,130.65,29.64
-6.81,0.62,13.66,140.78,-54.41,54.63
-4.91,1.05,12.93,139.37,-185.26,40.92
0.1,1.71,15.22,128.4,-70.63,7.26
-0.4,1.71,17.28,89.56,44.55,8.66
-3.09,0.53,16.36,65.41,26.14,19.21
-4.11,0.11,15.04,63.89,-59.78,24.64
-2.53,0.37,13.89,61.57,-93.01,16.59
-0.47,0.67,13.43,42.24,-40.2,6.53
-0.39,0.31,13.3,24.8,16.08,9.64
-1.2,-0.12,12.42,12.97,15.83,17.62
-1.61,-0.31,11.03,8.76,-9.35,24.51
-0.99,-0.28,9.58,11.81,-23.98,28.9
-1.11,-0.11,9.65,12.85,-11.67,30.98
-1.51,-0.11,9.95,10.9,-4.53,33.72
-1.93,-0.01,9.42,11.26,-8.62,33.9
-1.95,0.27,8.96,2.85,-19.04,32.07
-1.82,0.25,9.02,1.75,-20.93,26.4
-1.55,0.29,9.36,-3.06,-9.35,19.57
-1.39,0.07,9.34,-3.37,4.31,16.95
-1.42,0.02,9.02,-0.93,-0.32,18.42
-2.55,1.28,8.04,8.34,1.87,16.22
-1.01,0.44,8.84,10.41,7.05,17.38
-0.77,0.58,8.91,9.13,4.07,21.77
-0.73,0.45,9.04,8.64,-4.17,24.27
-0.58,0.48,8.99,5.59,-9.35,26.22
-0.54,0.47,8.96,0.65,-10.75,27.38
-0.63,0.5,8.9,-1.85,-10.02,26.77
-1.18,0.46,9.12,-6.42,-11.91,17.26
-1.26,0.15,9.06,-8.43,-20.99,4.03
-0.97,-0.09,8.74,-6.42,-23.98,-2.56
-0.73,0.67,8.45,-3.13,-16.73,4.51
-0.32,0.43,8.56,-3.8,-5.69,17.01
-4.05,-0.47,11.76,-0.87,-8.8,32.14
-1.4,0.29,9.3,0.96,-16.24,30.55
-0.86,0.35,9.15,-0.87,-13.31,25.67
-0.85,0.18,9.28,1.63,-11.73,18.05
-0.74,0.28,9,5.35,-7.52,16.71
-0.77,0.48,9.33,7.48,-4.04,14.88
-1.02,0.58,9.61,12.24,-6.06,13.23
-0.88,0.78,9.98,4.19,-13.98,15.73
-0.61,0.61,10.06,-4.1,-15.14,16.1
-0.7,0.67,10.15,-9.65,-9.23,17.74
-1.02,0.7,10.78,-15.14,-8.68,19.82
-1.27,0.51,11.03,-22.03,-4.1,17.93
-1.56,0.53,11.02,-27.88,-0.93,10.92
-1.29,0.4,11.17,-33.67,-1.85,6.1
-1.16,0.49,11.86,-39.1,-5.2,6.95
-0.93,0.46,12.01,-50.14,-7.4,7.5
-0.71,0.36,12.09,-63.37,-3.31,10.79
-0.62,0.26,12.23,-71.84,2.3,13.29
-0.84,-0.03,11.9,-79.83,2.6,14.15
-1,-0.19,11.89,-84.89,-4.17,13.05
-0.54,-0.18,12.06,-90.2,-2.82,13.54
-0.57,-0.02,12.55,-102.15,5.9,13.29
-0.66,-0.41,11.83,-112.58,11.63,12.81
-0.58,-0.78,11.23,-118.37,11.38,13.35
-0.44,-1.06,10.97,-122.21,6.69,17.44
-0.43,-1.15,11.01,-125.32,0.22,23.23
-0.39,-1.11,10.72,-134.1,-5.02,26.77
-0.38,-1.59,9.86,-142.09,1.93,24.94
0.13,-1.77,9.47,-147.09,25.1,22.2
0.15,-2.16,8.87,-150.75,41.44,26.16
-0.57,-2.46,8.05,-152.27,33.39,31.16
-0.61,-2.93,6.95,-151.54,24.19,31.34
-0.34,-3.34,6.19,-149.28,26.93,31.4
-0.36,-3.64,5.71,-149.34,44.86,26.95
-0.83,-3.89,5.17,-148.31,47.05,23.17
-1.09,-4.46,4.47,-143.37,40.53,23.96
-1.25,-4.77,4.43,-133.49,31.08,27.93
-1.27,-4.99,4.23,-127.94,24.98,32.68
-1.36,-5.36,3.85,-129.22,29.98,32.5
-1.64,-5.78,3.13,-128.73,37.18,27.44
-1.82,-6.2,2.68,-124.77,38.94,23.84
-2.21,-6.54,2.64,-115.5,27.85,24.03
-2.37,-6.6,2.6,-108.19,19.19,27.38
-2.4,-7.04,2.22,-103.98,14.74,27.14
-2.39,-7.28,1.63,-101.23,21.75,23.9
-2.35,-7.56,1.35,-93.19,28.94,22.32
-2.49,-7.81,1.44,-86.17,23.82,22.81
-2.74,-7.97,1.46,-78.67,12.24,24.03
-2.57,-7.95,1.67,-70.2,-1.91,25.06
-2.14,-8.2,1.53,-71.91,-8.25,27.56
-2.57,-8.16,0.92,-72.03,-8.5,32.26
-2.87,-8.4,0.59,-72.33,4.55,28.05
-3.11,-8.41,-0.34,-72.82,11.69,22.14
-3.07,-8.97,-0.95,-64.34,9.86,17.14
-2.75,-9.36,-1.58,-50.14,-0.87,17.2
-2.77,-9.43,-1.95,-38.98,-12.82,24.39
-2.9,-9.58,-2.36,-25.2,-19.29,27.87
-2.79,-9.54,-2.1,-7.7,-22.03,24.7
-2.37,-9.29,-1.78,1.14,-13.07,19.09
-2.25,-9.29,-1.29,9.56,-7.4,21.65
-2.7,-9.26,-1.18,16.08,-9.17,24.45
-3.34,-9.33,-1.02,26.14,-19.96,23.78
-3.11,-9.12,-0.8,32.97,-28.01,20.12
-2.81,-9.28,-0.74,39.8,-31.91,19.15
-2.82,-9.21,-0.68,47.73,-32.7,17.99
-2.95,-9.01,-0.89,56.14,-39.59,17.07
-2.72,-9.04,-1.15,61.69,-42.46,13.17
-2.17,-9.04,-1.34,70.72,-49.35,12.99
-2.07,-8.92,-1.44,79.5,-69.17,18.23
-1.83,-8.9,-0.97,93.64,-88.07,22.87
-2.07,-8.09,-0.07,107.42,-95.81,23.23
-1.98,-7.46,1.33,113.28,-85.08,16.71
-1.88,-7.1,2.14,111.02,-71.6,13.72
-1.73,-7.56,1.83,111.63,-68.31,12.81
-1.73,-7.08,2.4,121.02,-67.88,11.65
-1.35,-6.62,4.37,127.42,-52.58,14.76
-2.18,-5.81,5.56,119.98,-51.79,16.04
-2.23,-5.82,5.36,103.95,-54.35,9.64
-1.24,-6.02,4.97,89.25,-37.34,-1.52
-0.56,-6.51,4.51,91.87,-13.86,-1.58
-0.92,-6.5,4.5,102.91,-11.36,4.09
-1.63,-5.92,5.36,117.48,-33.31,14.15
-1.77,-4.94,6.38,111.26,-53.62,12.26
-0.8,-4.74,6.44,97.3,-36.73,5.61
0.09,-4.92,5.48,91.2,7.97,2.01
-0.39,-5.17,4.65,97.48,28.09,8.96
-1.74,-5.01,3.75,106.69,-14.59,15
-1.33,-4.4,3.42,118.4,-60.57,13.9
0.23,-3.02,5.25,127.06,-28.25,7.07
0.01,-2.55,6.52,119.98,23.46,9.94
-1.7,-2.58,6.94,119.62,14.07,11.28
-2.76,-3.02,6.69,138.89,-45.51,6.04
-1.14,-2.13,8,158.76,-73.74,0.37
0.35,-0.88,10.26,149.01,-47.4,-0.61
0.24,-0.28,11.97,129.07,-3.92,0.43
0.16,-1,12.16,116.63,23.88,1.59
-0.3,-1.73,11.3,108.15,28.58,12.99
-1.5,-2.15,10.27,113.4,-13.37,27.62
-1.78,-1.47,10.6,123.15,-62.88,20.49
-0.07,0.27,12.7,103.09,-44.41,6.95
0.75,-0.32,13.13,79.92,4,10.55
-0.08,-1.06,12.42,73.46,11.26,18.72
-1.31,-1.24,11.71,76.69,-27.4,22.44
-0.5,-0.6,12.06,78.34,-38.68,15.79
0.23,-0.03,12.64,62.54,-16.73,12.38
-0.17,-0.25,12.49,46.33,3.82,13.17
-0.86,-0.5,11.65,42.3,-9.9,14.82
-1.12,-0.55,11.14,40.41,-36.73,13.96
-0.07,-0.28,11.07,39.01,-28.31,11.59
0.68,-0.29,10.95,34.31,2.24,16.83
0.22,-0.35,11.19,28.03,12.85,24.88
-0.85,0.16,11,14.37,-5.51,27.56
-0.51,-0.09,10.66,4.86,-18.25,25.55
0.19,0.06,10.36,2.85,-4.84,22.81
0.03,0.11,10.29,-0.08,7.54,23.96
-0.28,-0.1,10.1,1.33,7.97,26.59
-0.67,-0.16,9.92,1.2,-3.56,26.71
-0.76,-0.01,9.45,1.02,-11.06,23.11
-0.47,-0.08,9.21,-1.3,-9.78,22.38
-0.39,-0.02,8.9,-3.06,-1.6,20.37
-0.5,-0.14,8.85,-4.16,3.64,20.92
-0.66,-0.18,8.63,-4.53,0.59,22.2
-0.74,-0.19,8.62,-6.05,-2.09,22.87
-0.75,-0.26,8.37,-4.53,-8.37,25.06
-0.57,-0.37,8.2,-1.78,-10.2,22.74
-0.88,-0.2,8.51,2.3,-8.8,19.94
-0.5,-0.11,8.55,0.96,-6.18,19.21
-0.35,-0.17,8.3,2.06,0.77,18.72
-2.08,0.25,7.91,5.05,-6.73,17.44
-1.23,-0.45,8.96,4.8,-4.23,21.1
-1.16,-0.12,8.76,2.42,-4.59,18.05
-1.15,-0.15,8.88,2.12,-6.85,16.46
-1.11,-0.3,8.95,-0.2,-10.93,16.16
-0.95,-0.45,8.99,-2.52,-11.67,16.53
-0.86,-0.48,9.2,-2.76,-13.56,15.06
-0.99,-0.45,9.16,-0.75,-16.54,10.73
-0.79,0.19,8.82,-1.24,-15.51,13.54
-0.76,0,8.89,-2.45,-16.6,19.82
-0.8,-0.3,8.87,-2.88,-15.57,24.76
-0.89,-0.24,9.08,-2.27,-17.09,25.92
-2.33,19.6,8.17,-62.09,-19.84,17.99
-1.14,-0.63,9.26,-1.97,-13.62,18.42
-0.95,-0.21,9.28,-3.8,-6.36,19.57
-0.89,-0.34,9.33,-2.64,-6.18,17.74
-0.78,-0.23,9.27,-4.95,-7.09,20.85
-0.91,-0.34,9.43,-4.16,-11.12,22.62
-0.94,-0.31,9.83,-5.02,-11.54,21.4
-0.97,-0.25,10.08,-6.54,-13.86,22.93
-0.82,-0.23,10.45,-9.95,-12.89,23.17
-1,-0.17,10.82,-13.98,-6.91,20.37
-1,-0.12,11.18,-21.42,-1.97,19.03
-1.06,-0.39,11.15,-27.45,-0.39,17.87
-0.97,-0.42,11.19,-33.49,1.5,16.71
-0.85,-0.37,11.45,-39.59,7.3,16.28
-0.95,-0.21,12.24,-47.52,7.18,16.59
-1.04,-0.32,12.5,-59.28,4.49,17.93
-0.89,-0.47,12.2,-71.3,9.68,17.62
-1.07,-0.62,11.76,-83.73,17.66,14.57
-1.26,-0.92,11.89,-90.81,17.97,12.87
-1.22,-0.81,12.32,-98.12,12.97,14.21
-1.23,-1,12.42,-107.82,11.63,13.78
-1.01,-1.17,12.14,-117.33,15.83,13.11
-1.01,-1.11,12.4,-129.1,21.93,12.99
-0.98,-1.75,11.61,-141.23,26.57,12.44
-1.07,-1.85,10.9,-148.67,28.15,15.61
-1.09,-2.06,10.53,-153.19,30.35,16.16
-0.74,-2.8,9.12,-159.53,37.36,15.79
-0.79,-2.4,9.21,-164.77,41.38,17.5
-0.52,-3.4,7.44,-170.68,49.19,19.76
-0.84,-3.63,6.49,-167.03,50.35,24.21
-1.53,-3.73,5.95,-166.6,41.08,25.92
-1.79,-3.97,4.69,-166.97,29.07,21.04
-1.28,-4.57,3.58,-161.23,31.93,18.23
-0.94,-4.71,3.27,-157.09,45.53,20.73
-1.47,-4.97,3.16,-150.87,54.55,25.73
-1.76,-5.34,2.48,-145.2,51.5,24.51
-1.93,-5.76,2.17,-136.42,49.25,22.81
-1.98,-5.97,2.09,-129.59,38.09,23.35
-2.01,-6.35,2.02,-126.3,27.97,23.6
-2,-6.53,1.57,-122.45,24.92,22.87
-1.8,-6.89,1.04,-117.82,31.32,23.42
-1.86,-7.13,0.84,-113.61,40.41,26.65
-2.13,-7.42,0.41,-107.88,46.26,28.29
-2.73,-7.61,0.08,-103.86,44.61,27.38
-2.59,-8.26,-0.58,-101.78,36.44,22.32
-2.93,-8.13,-1.52,-96.48,18.7,22.99
-3.28,-8.48,-1.78,-82.21,17.36,16.71
-3.25,-8.61,-2.03,-70.2,11.99,14.21
-3.13,-8.74,-2.26,-60.26,1.26,16.04
-2.99,-9.12,-2.63,-50.38,-4.41,19.64
-2.93,-9.3,-2.94,-39.1,-7.82,19.57
-2.96,-9.16,-3.06,-28.06,-8.62,15.79
-2.74,-9.18,-2.88,-18.19,-1.6,15.06
-2.66,-9.12,-2.76,-9.47,7.42,18.48
-2.82,-9.45,-2.6,-3.49,10.16,21.34
-3.5,-9.36,-2.19,10.05,3.03,23.66
-3.6,-9.26,-1.98,19.56,-7.21,24.88
-3.66,-9.29,-1.64,25.11,-19.9,23.54
-3.85,-9.04,-1.18,30.29,-30.87,22.56
-3.75,-9.09,-1.13,33.15,-35.26,17.5
-3.41,-9.09,-1.26,35.84,-33.31,13.54
-3.25,-9.17,-1.57,41.45,-34.65,12.62
-3.03,-9.18,-1.86,50.78,-37.03,11.77
-2.91,-9.18,-1.75,61.45,-41.73,12.62
-2.78,-8.93,-1.51,71.26,-49.41,15.79
-2.86,-8.81,-1.31,76.45,-63.86,16.28
-2.59,-8.54,-1.21,83.34,-68.25,13.35
-2.4,-8.32,-0.92,88.52,-69.04,14.15
-2.41,-8.28,-1.03,94.86,-79.77,15.37
-2.09,-8.23,-1.01,107.18,-93.43,18.54
-1.43,-7.9,-0.73,120.59,-80.99,20.18
-1.39,-7.34,0.19,129.56,-54.35,21.83
-2.34,-6.87,1.37,131.02,-56.18,20.98
-2.62,-6.73,1.72,133.03,-86.06,15.43
-1.39,-6.48,2.13,142.54,-82.15,10.55
-0.65,-6.05,3.15,149.92,-48.31,11.59
-1.23,-5.17,3.74,146.51,-15.57,12.81
-2.13,-5.01,4.38,145.84,-20.63,9.39
-2.15,-5.01,4.38,147.91,-48.56,7.87
-1.42,-4.76,4.29,152.24,-69.96,8.66
0.26,-4.15,4.56,158.52,-26.06,4.7
-0.23,-3.28,6.12,154.31,35.1,8.23
-2.11,-3.21,7.39,147.91,1.99,16.95
-2.94,-3.38,7.04,139.31,-88.31,22.38
-0.65,-3.56,5.53,146.51,-110.99,14.57
3.02,-3.02,5.51,158.88,19.61,8.66
1.09,-1.79,7.25,148.15,127.54,24.33
-3.57,-2.03,8.86,137.91,51.14,38.11
-5.11,-2.26,8,141.39,-124.84,42.32
-0.95,-2,7.12,159.01,-157.52,22.14
3.47,-0.86,8.7,158.28,14.98,16.1
1.43,-0.39,9.33,141.2,155.16,33.96
-3.9,-1.19,10.5,136.32,89.98,50
-6.03,-0.24,10.47,139.31,-115.69,52.07
-2.24,-0.4,8.67,142.48,-195.2,36.53
3.08,0.71,10.39,149.68,-31.18,17.01
1.63,1.27,12.47,138.21,109.55,29.94
-3.83,1.49,14.92,119.86,44.31,39.09
-4.17,2.04,13.63,98.64,-93.92,36.65
-0.68,1.77,12.77,87.48,-90.57,26.83
0.64,2.2,13.67,74.13,14.98,22.2
-1.63,1.84,14.62,61.2,40.1,29.27
-3.09,1.86,14.43,44.74,-20.39,27.62
-2.51,1.58,13.01,31.08,-74.04,24.27
-0.7,1.72,12.38,22.91,-48.86,18.72
-0.02,1.27,12.25,15.59,11.99,20.98
-1.48,1.14,12.13,9.31,17.66,25.85
-2.23,1.16,11.23,-0.87,-13.49,27.93
-1.79,0.86,10.12,-3.8,-24.65,24.88
-1.33,1.01,9.99,-5.81,-8.8,23.6
-1.06,0.67,9.89,-7.27,9.98,23.78
-1.94,0.53,9.7,-6.05,7.91,24.33
-1.9,0.71,9.15,-16.48,-0.75,21.34
-1.86,0.77,8.73,-9.1,-9.23,22.07
-1.52,0.61,8.49,-9.53,-2.4,17.32
-1.32,0.56,8.81,-2.52,1.38,16.4
-1.24,0.81,8.91,-8.06,-1.42,16.89
-1.22,0.67,8.65,-8.67,-5.32,18.78
-1.08,0.61,8.51,-9.47,-6.12,19.33
-1.09,0.52,8.39,-9.35,-3.62,18.84
-1.12,0.53,8.55,-7.39,1.63,13.72
-1.23,0.49,8.76,-6.97,-0.02,12.5
-1.31,0.42,8.7,-5.75,-9.78,14.51
-0.95,0.45,8.56,-4.83,-12.34,16.65
-0.84,0.35,8.55,-1.91,-6.54,17.93
-1.18,0.55,8.55,-1.72,-3.31,16.4
-1.27,0.44,8.69,-5.08,-9.78,16.46
-1.23,0.46,8.68,-4.95,-15.26,17.14
-1.16,-0.14,8.41,11.02,0.35,14.88
-1.34,-0.48,8.9,14.5,-0.26,17.74
-1.32,-0.19,9.06,8.03,0.96,19.57
-1.4,-0.11,8.82,2.73,-4.47,22.5
-1.82,-0.17,8.98,-3.19,-16.36,22.99
-1.91,-0.26,8.99,-6.11,-20.32,14.27
-1.9,-0.22,9.01,-7.15,-20.39,4.64
-1.84,-0.09,9.1,-6.85,-22.34,1.34
-1.64,0.95,8.59,-14.53,-22.52,8.05
-1.39,-0.1,8.85,-13.43,-18.49,22.81
-0.84,0.18,8.33,-14.95,-5.39,27.14
-1.83,-0.1,8.74,-9.95,-8.62,19.45
-1.74,-0.41,9.15,-6.72,-7.28,15.49
-1.51,-0.38,9.06,-1.42,-9.29,14.03
-1.25,-0.39,9.37,-4.1,-8.19,17.68
-1.45,-0.18,9.71,-6.42,-8.25,19.51
-1.37,-0.25,9.89,-8.67,-6.79,17.56
-1.28,-0.37,10.04,-11.36,-5.69,17.2
-1.38,-0.4,10.33,-13.43,-9.71,17.32
-1.41,-0.28,10.71,-16.72,-13.37,17.07
-1.54,-0.4,11.02,-23.13,-11.79,13.54
-0.96,-0.39,10.8,-32.33,-6.42,15.06
-1.06,-0.61,10.77,-37.52,-3.8,17.14
-1.14,-0.64,10.86,-41.6,-3.56,17.62
-1.09,-0.67,11.44,-44.77,-1.42,20.31
-1.3,-0.53,11.63,-54.65,-1.67,21.95
-1.42,-0.68,11.4,-62.82,0.04,20.73
-1.34,-1,10.98,-72.15,4.43,21.04
-1.44,-1.24,10.85,-77.88,5.1,21.83
-1.64,-1.16,11.15,-83.49,6.44,22.07
-1.62,-1.29,11.1,-90.08,11.99,21.71
-1.73,-1.36,11.38,-92.21,12.36,21.89
-1.95,-1.14,11.77,-100.08,9.86,19.27
-1.92,-1.25,11.55,-116.42,8.33,15.92
-1.36,-2.17,10.07,-121.9,16.57,14.15
-1.29,-2.49,9.69,-123.43,26.32,17.2
-1.34,-2.79,9.13,-126.84,34.31,18.29
-1.43,-2.97,8.31,-128.19,44.8,19.33
-1.84,-3.23,8.06,-128.06,34.98,19.39
-1.68,-3.63,6.49,-127.33,29.07,20
-1.42,-4.19,5.57,-123.37,43.64,16.71
-1.49,-4.31,5.43,-118.8,55.53,14.94
-1.8,-4.31,5.93,-111.54,54.61,16.34
-2.09,-4.46,5.73,-112.33,43.88,15.43
-1.92,-4.69,5.59,-114.53,34.37,13.6
-1.61,-4.89,5.31,-116.78,37.78,12.68
-1.58,-5.36,5.08,-116.36,42.3,14.45
-2.07,-5.5,5.35,-114.83,45.59,15.67
-2.39,-5.73,5.24,-113.61,55.89,13.48
-2.86,-5.91,4.53,-116.48,52.3,13.11
-3.23,-6.44,4.04,-115.93,39.74,11.83
-3.2,-6.63,3.61,-113,25.65,11.04
-3.03,-6.62,2.99,-114.04,21.26,7.87
-2.9,-6.93,2.68,-111.9,21.87,6.34
-2.94,-7,2.2,-111.3,20.04,7.56
-2.75,-7.26,1.59,-109.22,20.22,11.04
-3.04,-7.39,0.99,-106.66,21.87,10.55
-2.99,-7.72,0.22,-102.15,20.71,7.62
-3,-7.86,-0.43,-96.84,13.09,7.56
-3.1,-7.93,-0.88,-90.56,-0.14,9.33
-2.89,-8.2,-1.95,-87.03,-11.12,8.29
-2.5,-8.71,-2.59,-70.32,-12.34,8.48
-2.04,-8.9,-3.08,-60.38,-6.36,7.81
-2.04,-9.16,-3.47,-41.78,0.29,12.81
-2.24,-9.32,-3.7,-28,2.72,17.32
-2.67,-9.43,-3.76,-12.88,-6.73,20.98
-2.84,-9.38,-3.63,4.31,-14.71,22.01
-2.89,-9.39,-3.15,18.7,-13.86,22.44
-3.02,-9.01,-2.31,28.34,-16.67,21.95
-2.94,-9.11,-1.64,36.33,-21.42,21.4
-2.98,-9.19,-1.35,45.41,-29.1,24.03
-3.08,-9.13,-1.28,55.78,-35.32,26.22
-2.99,-8.97,-0.84,64.74,-38.43,26.53
-2.8,-8.74,-0.25,69.43,-34.29,24.76
-2.72,-8.56,0.08,69.07,-31.3,24.15
-2.82,-8.57,0.33,70.84,-31.18,25.55
-2.86,-8.57,0.58,77.67,-29.53,25.37
-2.79,-8.26,1.03,80.29,-24.59,20
-2.52,-8.03,1.13,80.72,-20.26,19.45
-2.65,-8.03,0.69,81.14,-24.17,22.74
-3.01,-7.95,0.75,89.01,-33.68,25.31
-2.83,-7.88,1.36,97.67,-39.17,25.12
-2.89,-7.25,2.85,104.37,-36.67,25.49
-3.26,-6.97,3.28,100.35,-40.87,20.67
-3.28,-6.98,2.88,99.37,-51.36,14.27
-2.44,-6.93,2.67,101.39,-48.92,9.09
-1.7,-6.88,3.9,112.42,-30.32,15.85
-2.42,-6.39,4.95,108.34,-27.7,25.24
-3.29,-6.01,5.84,107.97,-53.13,27.44
-2.9,-5.7,6.06,98.95,-56.79,15.85
-1.83,-5.79,5.69,94.07,-34.1,6.04
-1.33,-5.96,5.36,91.51,-13.01,9.15
-1.61,-6.36,4.91,97.48,-14.29,18.48
-1.97,-5.83,5.63,110.23,-38.13,30
-2.24,-4.7,6.79,99.74,-59.96,31.65
-1.49,-4.56,6.33,92.3,-45.45,21.1
-0.64,-4.82,6.15,91.81,7.24,15.92
-1.89,-5.09,6.08,95.11,9.49,21.34
-2.07,-5.04,5.19,104.13,-19.71,29.33
-1.46,-4.58,5.09,117.54,-35.26,35.98
-1.31,-2.92,6.68,109.43,-17.09,37.44
-1.82,-2.96,7.44,93.82,-1.97,30.24
-2.04,-3.13,6.55,92.54,-2.64,25.12
-1.76,-3.39,6,107.18,-4.65,24.88
-1.09,-2.94,5.64,121.75,9.98,30.49
-2.1,-2.5,6.59,126.57,-10.51,39.33
-1.9,-1.78,6.92,129.19,-33.8,40.67
-1.24,-0.81,8.62,123.21,-17.52,38.72
-1.69,-0.88,9.04,112.91,-11.12,39.21
-2.17,-1.22,8.88,115.9,-27.03,38.6
-2.25,-1.07,9.49,128.82,-39.96,39.94
-1.56,-0.45,10.57,133.82,-21.85,40.61
-1.99,0.67,11.65,117.91,2.97,41.28
-3.01,0.3,11.63,104.74,-13.92,40.06
-3.49,0.52,12.27,100.9,-48.8,32.74
-2.66,1.11,13.37,89.31,-60.14,23.78
-1.35,1.06,13.69,73.64,-33.8,22.2
-1.63,0.76,13.67,58.95,-11.48,26.71
-2.25,0.67,12.86,49.56,-19.96,27.74
-2.26,0.6,12.45,43.09,-38.31,24.15
-1.56,0.72,12.12,36.2,-33.19,19.57
-1.05,0.69,12.04,26.2,-9.9,19.21
-1.37,0.51,11.89,16.75,0.71,23.35
-1.82,0.44,11.27,10.05,-6.73,25.79
-1.92,0.4,10.73,6.45,-15.57,26.16
-1.51,0.32,10.09,3.58,-7.64,26.4
-1.56,0.34,9.83,0.29,5.53,28.29
-2.46,0.28,9.85,-0.99,-0.93,28.42
-2.25,0.23,9.35,-2.15,-11.91,23.84
-1.75,0.34,9.05,-2.39,-13.74,21.65
-1.3,0.28,9.04,-3.06,-2.46,21.16
-1.53,0.5,8.99,-4.71,4.68,22.32
-1.88,0.4,8.94,-8.06,-1.73,23.05
-1.99,0.32,8.63,-9.53,-12.46,20.55
-1.44,0.2,8.53,-6.05,-8.37,20.12
-1.21,0.15,8.82,-4.04,3.09,20.98
-1.5,0.24,8.57,-7.03,4.19,23.35
-1.78,0.18,8.46,-4.59,-1.3,20.85
-1.82,0.23,8.47,-3.49,-9.29,20.37
-1.78,0.3,8.44,-5.38,-13.13,18.66
-3.1,0.03,8.05,21.02,5.29,14.7
-2.56,-0.29,9.14,19.01,11.63,9.21
-2.12,-0.16,9.3,12.97,8.33,5.85
-2.02,-0.02,9.18,6.33,-1.24,9.7
-1.88,-0.15,8.94,-2.21,-9.17,13.42
-1.89,-0.15,8.94,-8.74,-16.3,12.5
-1.86,-0.09,9.11,-16.84,-19.29,10.43
-1.9,-0.01,9.22,-24.77,-15.81,5.18
-1.88,0.14,9.24,-25.38,-15.63,5.55
-1.75,-0.1,8.94,-24.65,-12.15,10.31
-3.54,-0.62,11.61,-21.36,-13.43,21.46
-2.09,-0.26,8.78,-20.2,-12.34,19.39
-2.09,-0.57,9.3,-16.66,-10.26,18.29
-2.02,-0.56,9.37,-11.36,-10.75,15.24
-1.91,-0.36,9.52,-11.36,-5.2,15
-2,-0.47,10.02,-13.98,-2.34,14.88
-2.06,-0.59,10.08,-17.76,-4.1,14.88
-1.94,-0.42,10.29,-23.06,-5.57,15.31
-1.88,-0.79,10.32,-27.27,-1.73,15.18
-2.1,-0.7,10.38,-33.19,2.6,12.01
-2.23,-0.77,10.88,-37.39,-1.24,12.01
-2.18,-0.71,11.13,-45.63,-6.42,12.07
-1.98,-0.84,11.26,-50.93,-3.98,11.77
-1.89,-1.14,11.05,-57.45,6.14,10.73
-2.06,-1.35,10.81,-61.6,8.46,10.61
-2.14,-1.63,10.66,-67.94,-2.03,11.22
-2.17,-1.7,10.83,-74.89,-12.52,9.15
-2.03,-1.4,11.71,-85.5,-9.41,6.4
-1.41,-1.79,12.32,-93.37,6.32,5.31
-1.42,-1.9,12.29,-101.36,18.33,9.82
-1.8,-2.04,11.94,-111.6,18.15,13.05
-2.01,-2.23,11.35,-119.22,14.19,15.49
-1.79,-2.61,10.48,-123.8,15.53,13.54
-1.99,-2.73,10.69,-123.92,20.22,13.42
-2.26,-2.65,10.86,-133.25,16.87,14.39
-1.77,-2.76,9.66,-150.08,21.87,15.06
-1.69,-3.32,8.93,-154.4,30.71,19.45
-1.94,-3.68,7.73,-156.23,29.86,23.05
-2.12,-3.78,6.83,-156.11,29.92,22.38
-2,-4.19,5.46,-153.98,31.14,21.53
-2.5,-4.44,5.24,-146.84,27.91,21.53
-2.49,-4.68,4.26,-141.66,14.07,19.39
-2.18,-4.76,3.8,-140.99,6.81,20.18
-1.58,-5.2,3.13,-140.75,20.77,22.62
-1.56,-5.25,2.82,-138.25,39.61,26.89
-2.19,-5.63,2.75,-130.87,53.52,26.59
-2.79,-5.7,2.51,-128.12,50.59,26.65
-2.85,-5.93,2.32,-121.48,44.8,26.34
-2.9,-6.39,1.67,-119.04,42.11,25.12
-2.74,-6.53,1.28,-111.48,47.05,22.26
-2.82,-6.73,1.23,-109.28,45.22,19.64
-3.07,-7.08,0.8,-105.62,30.53,18.9
-2.73,-6.97,0.29,-104.04,24.37,17.62
-2.83,-7.03,0.22,-96.97,21.2,22.68
-3.02,-7.37,0.37,-95.69,29.07,17.01
-3.25,-7.79,-0.87,-92.88,22.79,12.81
-3.16,-8.17,-1.61,-84.1,6.63,13.48
-2.97,-8.33,-2.34,-77.27,-0.81,16.95
-3.04,-8.49,-2.55,-67.15,2.54,16.1
-3.04,-8.67,-3.08,-57.82,9.13,14.45
-3.06,-8.85,-3.45,-49.04,10.16,13.17
-2.82,-9.29,-4.1,-34.22,4.13,15.55
-2.77,-9.35,-4.23,-20.5,0.22,20.67
-3.06,-9.47,-4.32,-4.53,-1.06,24.33
-3.2,-9,-3.73,8.34,1.81,25.24
-3.42,-9.18,-3.16,18.95,8.58,25.24
-3.89,-9.02,-2.77,26.33,5.41,27.74
-4.55,-9.22,-2.61,37.06,-12.89,25.92
-4.55,-9.02,-2.7,45.72,-38.31,23.72
-3.83,-9.23,-2.41,58.95,-46.79,17.68
-3.46,-8.87,-1.8,65.47,-44.9,13.05
-2.92,-8.93,-1.11,69.8,-40.75,13.48
-3.26,-8.79,-0.87,71.51,-46.42,19.27
-3.05,-8.65,-0.62,75.59,-47.52,18.11
-2.86,-8.47,-0.63,75.72,-40.14,17.32
-3.14,-8.55,-0.53,80.47,-45.75,16.28
-3.46,-8.26,-0.64,84.8,-71.24,17.07
-2.76,-8.23,-0.25,92.79,-84.59,15.43
-2.08,-8.07,0.18,100.59,-71.18,17.56
-2.48,-7.84,1.08,104.74,-66.48,20.79
-2.64,-7.53,1.55,104.8,-78.31,21.28
-1.53,-7.28,1.92,106.63,-57.34,19.57
-1.24,-7.11,2.17,109.19,-11.91,21.65
-2.58,-6.95,2.98,109.31,-4.04,24.7
-3.24,-6.65,2.68,108.28,-25.08,24.76
-2.79,-6.37,2.73,114.37,-26.12,17.74
-2.23,-6.13,3.56,116.69,-14.96,16.22
-1.8,-5.62,4.11,115.78,-1.36,19.39
-2.48,-5.65,4.96,118.09,-6.67,28.17
-3.01,-5.35,4.75,119.01,-30.39,31.65
-2.94,-4.94,5.12,122.54,-45.02,25.12
-1.51,-4.33,5.42,120.17,-15.93,17.56
-1.46,-4.02,6.24,110.65,14.13,20.79
-2.85,-4.31,6.73,103.09,-13.31,31.53
-3.68,-4.08,6.78,100.59,-87.46,42.81
-1.49,-3.7,6.65,100.71,-87.46,35.12
0.26,-2.8,7.6,90.65,28.7,25.31
-0.87,-3.37,7.53,81.14,108.39,30.67
-4.47,-4.43,7.39,87,38.21,47.2
-5.84,-4.25,7.4,100.96,-108.92,43.54
-2.11,-3.06,7.35,108.76,-114.35,25
0.74,-2.67,8.87,107.73,29.13,22.87
-2.09,-3.23,9.66,105.84,80.1,40
-5.29,-3.27,9.62,106.26,-11.24,43.72
-5.07,-3.38,8.4,111.45,-113.43,39.63
-2.43,-2.82,7.57,119.31,-124.04,27.07
0.78,-2.42,8.98,124.62,-4.23,26.34
-1.55,-1.28,11.89,113.76,54.68,43.84
-3.85,-1.37,11.83,99.92,4.8,50.79
-4.2,-1.79,10.25,92.67,-63.62,50.31
-3.54,-1.62,9.39,94.25,-110.81,40.43
-0.53,-1.31,9.91,102.79,-37.76,29.88
-1.31,-0.36,11.43,92.73,42.24,34.76
-3.66,-0.2,12.39,74.62,19.74,35.55
-3.87,-0.34,11.16,54.74,-37.15,33.9
-2.94,-0.63,10.16,53.09,-62.09,32.07
-1.61,-0.34,9.88,51.69,-23.49,28.84
-1.82,-0.32,10.05,50.84,26.81,28.11
-3.35,-0.13,10.46,45.78,10.83,28.84
-3.76,0.24,10.05,36.45,-33.37,26.28
-3.21,0.09,9.77,30.35,-63.01,22.44
-1.55,0.36,9.51,24.25,-27.46,17.68
-1.43,0.06,9.96,27.42,21.69,19.33
-2.74,0.2,10.12,20.35,11.2,20.43
-2.63,0.01,9.66,18.28,-21.18,18.35
-2,0.12,9.03,16.14,-23.62,18.6
-1.67,0.19,8.76,13.7,-7.09,18.66
-1.91,0,8.91,12.67,8.15,19.88
-2.36,0.11,9.12,12.36,1.26,21.1
-2.57,0.13,9.02,14.07,-14.29,20.37
-2.43,0.27,9.11,14.56,-23.13,17.87
-1.92,0.4,9.25,12.67,-16.54,16.1
-1.69,0.36,9.28,12,0.22,15.18
-2.01,0.51,9.57,9.74,0.22,17.14
-2.16,0.48,9.44,6.02,-10.93,18.17
-1.83,0.54,9.38,3.15,-13.68,18.48
-1.62,0.47,9.28,1.02,-4.17,19.15
-1.75,0.25,9.22,1.69,2.91,20.12
-1.86,0.22,9,1.57,1.44,20.92
-2.07,0.42,9.01,-1.11,-3.01,21.1
-2.67,0.46,8.54,8.83,-0.08,18.23
-2.39,0.02,8.81,8.89,1.5,20.37
-2.02,0.25,8.71,4.62,3.15,22.32
-2.2,-0.04,8.7,1.39,3.58,21.1
-2.27,-0.05,8.69,-3.67,0.16,19.03
-2.16,0.06,8.84,-8.92,-3.25,19.15
-2.18,-0.22,8.7,-8.74,-7.15,17.2
-2.25,-0.17,8.73,-7.03,-12.4,12.74
-2.42,-0.45,8.92,-6.72,-20.2,2.2
-2.38,0.01,8.62,-6.05,-24.71,-4.39
-2.05,0.39,8.46,-7.15,-24.53,1.16
-1.75,0.14,8.4,-7.21,-20.39,14.27
-1.85,-0.33,8.81,6.45,-14.1,20.18
-1.78,-0.64,9.26,-2.39,-14.71,17.99
-1.63,-0.42,8.88,-7.03,-11.24,17.87
-1.98,-0.33,8.79,-6.36,-11.6,17.93
-1.94,-0.29,8.86,-2.88,-10.2,17.38
-1.8,-0.06,9.11,-0.32,-6.91,19.09
-1.82,-0.19,9.35,1.08,-3.86,18.72
-1.95,0.09,9.86,-2.52,-5.32,18.23
-1.98,0.02,10.01,-9.95,-6.06,16.83
-1.98,-0.01,10.34,-13.8,-5.32,15.98
-2,-0.09,10.6,-18.61,-4.78,15.06
-1.93,-0.1,10.97,-24.1,-6.3,16.22
-1.88,0.01,11.27,-31.48,-0.63,16.77
-2.14,-0.08,11.64,-38.86,6.57,16.46
-2.25,-0.37,11.69,-44.16,12.79,15.61
-2.64,-0.26,12.03,-53.8,11.81,12.74
-2.7,-0.53,12.02,-62.58,11.87,8.11
-2.73,-0.91,11.93,-68.12,10.65,4.7
-2.76,-0.92,12.17,-75.44,8.76,4.76
-2.76,-1.25,12.15,-85.75,6.87,3.35
-2.91,-1.43,12.05,-90.75,4.98,0.92
-2.76,-1.58,12.3,-98.86,8.27,-0.79
-2.72,-1.75,11.95,-106.78,17.79,-3.35
-2.68,-2.01,11.72,-112.33,26.26,-5.73
-2.52,-2.23,10.84,-116.36,33.03,-6.46
-2.36,-2.34,10.36,-123.55,39.37,-5.43
-2.48,-2.24,10.06,-127.82,46.93,-1.34
-2.41,-2.35,9.36,-138.92,56.75,-0.91
-2.56,-2.4,9.06,-144.34,64.31,-0.97
-2.4,-2.84,7.7,-155.01,68.33,-4.63
-2.35,-3.03,6.84,-155.93,67.24,-3.78
-2.44,-2.94,6.17,-157.58,64.86,-6.22
-2.42,-3.45,5.41,-157.82,59.86,-7.8
-2.21,-3.59,4.66,-154.22,44.31,-6.52
-2.05,-3.81,4.56,-156.42,33.15,-6.95
-1.91,-4.24,3.7,-155.14,23.27,-2.32
-1.75,-4.61,2.82,-152.03,20.89,1.16
-1.66,-4.94,2.6,-146.17,26.57,4.94
-1.84,-5.23,2.46,-138.73,32.85,5.55
-2.38,-5.4,2.11,-137.21,30.83,6.28
-2.37,-5.84,1.23,-134.77,26.08,6.89
-2.54,-6.29,0.87,-126.3,21.2,8.23
-2.72,-6.6,0.7,-119.95,17.42,7.75
-2.65,-7.01,0.12,-114.22,15.04,5.06
-2.88,-7.28,-0.44,-108.37,9.43,7.44
-2.94,-7.51,-0.76,-99.22,10.16,6.77
-2.89,-7.9,-1.38,-93.55,15.47,5.55
-3.09,-8.08,-1.92,-87.94,10.04,5.98
-3.1,-8.56,-2.72,-79.34,-3.74,9.21
-2.94,-8.87,-3.26,-66.78,-9.41,9.82
-2.67,-9.16,-3.95,-53.31,-6.73,13.84
-2.74,-9.24,-3.69,-40.44,-1.36,14.51
-2.79,-9.33,-3.44,-27.03,1.5,16.34
-2.81,-9.32,-3.06,-13,-2.76,21.04
-2.71,-9.34,-2.72,-6.91,0.1,23.11
-3.06,-9.29,-2.14,-0.5,-1.79,25.85
-3.35,-9.35,-1.45,7.48,-2.09,27.5
-3.42,-9.18,-1.3,10.84,-2.34,27.74
-3.58,-9.28,-0.56,15.11,-4.23,26.34
-3.64,-9.1,-0.1,13.83,-4.23,23.48
-3.48,-9.3,-0.08,14.07,-2.52,22.2
-3.54,-9.29,-0.65,15.84,-3.8,21.71
-3.7,-9.27,-1.09,16.69,-13.68,21.89
-4.09,-9.45,-1.47,23.15,-27.09,21.1
-4.26,-9.22,-1.6,29.07,-41.42,18.78
-3.39,-9.17,-1.41,35.9,-38.74,13.17
-2.84,-9.12,-1.65,38.34,-29.71,11.1
-2.92,-9.1,-1.84,46.08,-27.34,14.15
-3.14,-9.04,-1.51,54.31,-36.85,17.93
-3.19,-8.75,-1.35,63.34,-50.51,19.21
-2.64,-8.66,-1.13,67.97,-50.75,16.1
-2.19,-8.5,-0.76,75.29,-44.96,19.09
-2.48,-8.54,-0.39,81.51,-43.98,23.11
-2.69,-8.26,0.07,88.58,-53.31,26.16
-2.63,-8.02,0.36,93.34,-59.96,26.4
-2.24,-7.87,0.54,95.17,-55.45,25
-2.15,-7.99,0.67,100.35,-46.42,26.65
-2.68,-7.7,1.32,107.3,-50.08,30.98
-3.13,-7.21,1.98,110.65,-69.35,31.65
-2.3,-7.07,2.36,111.02,-67.82,27.87
-1.87,-6.68,2.7,113.15,-45.26,24.64
-1.93,-6.48,2.84,115.41,-18.31,21.95
-2.64,-6.21,3.73,118.58,-24.1,21.83
-2.56,-6.21,4.27,118.34,-48.13,26.22
-2.25,-5.97,4.25,118.03,-69.9,31.83
-1.21,-5.51,3.96,117.48,-43.25,27.01
-1.28,-5.08,5.12,119.56,2.36,23.05
-2.55,-4.8,5.95,116.08,-3.68,25.92
-3.55,-4.73,6.53,111.39,-65.51,30.73
-1.93,-4.88,5.53,111.08,-83.07,26.1
0.13,-4.64,5.42,119.74,-8.62,21.28
-0.85,-3.72,6.66,113.7,57.3,27.26
-3.14,-3.68,6.8,102.12,31.32,33.84
-4.47,-3.87,6.54,104.92,-62.15,37.07
-1.96,-3.89,5.91,117.67,-78.13,27.93
0.06,-3.06,7.09,128.46,19,31.28
-2.23,-2.43,8.69,116.63,62.17,41.22
-4.9,-2.53,9.09,105.11,-4.17,42.99
-4.98,-2.69,8.22,106.87,-88.31,35.12
-1.64,-2.45,7.74,117.48,-66.48,19.39
-0.2,-1.67,9.47,115.23,31.99,25.55
-2.73,-1.65,11,102.24,40.96,38.23
-4.59,-1.81,10.49,96.14,-37.03,41.89
-4.09,-1.8,9.94,98.03,-103.07,32.99
-0.95,-1.2,10.54,100.53,-45.75,16.59
-0.57,-0.83,11.45,93.34,37.11,24.88
-3.29,-0.93,11.89,80.11,14.25,33.6
-3.7,-0.97,11.18,68.82,-53.98,33.17
-2.76,-0.9,10.4,67.97,-80.93,28.54
-1.16,-0.59,10.85,64.31,-27.82,19.03
-1.24,-0.45,11.32,59.43,22.42,22.2
-2.94,-0.72,11.06,55.47,6.81,26.71
-3.21,-0.58,10.52,50.23,-36.12,25.18
-2.53,-0.32,10.18,42.85,-54.78,22.68
-1.38,-0.28,10.12,41.14,-19.71,19.21
-1.61,-0.15,10.61,37.42,14.61,20.92
-2.48,-0.18,10.36,31.33,7.36,22.01
-2.61,-0.26,9.85,28.4,-13.49,21.71
-2.32,-0.13,9.62,23.64,-18.31,21.77
-1.9,-0.13,9.75,20.04,-7.15,20.79
-1.97,-0.19,9.74,19.13,5.71,21.46
-2.53,0,9.86,14.98,-3.43,21.89
-2.43,-0.08,9.31,17.61,-12.46,21.16
-2.13,0,9.29,10.35,-9.65,20
-1.89,-0.08,9.32,9.62,0.47,19.57
-2.09,0.03,9.25,9.13,1.81,20.43
-2.42,0.06,9.05,5.29,-6.42,20.73
-2.38,0.02,8.81,5.59,-15.45,19.88
-0.83,-10.21,9.01,28.34,14.25,22.87
-2.02,-0.32,8.96,12.79,6.08,22.44
-2.11,0.12,8.83,8.83,-1.24,21.28
-2.08,0.04,8.96,5.17,-5.75,18.72
-1.9,-0.26,8.95,-1.54,-10.63,18.48
-1.62,-0.32,9,-11.66,-8.37,14.21
-2.08,-0.09,9.04,-16.6,-8.86,10.12
-2.35,0.11,9.12,-19.47,-12.58,6.16
-2.31,0.25,9.24,-20.56,-17.82,8.23
-1.01,11.35,6.78,-70.26,-25.08,9.03
-2.51,-0.41,9.66,-19.95,-12.15,16.89
-2.34,-0.5,9.64,-18.8,-5.63,19.76
-2.36,-0.62,9.33,-15.69,-4.47,16.04
-2.29,-0.45,9.62,-14.16,0.41,14.21
-2.21,-0.49,10.3,-14.41,2.48,15.24
-2.56,-0.27,11.04,-18.55,-1.91,13.05
-2.38,-0.15,11.31,-25.38,-9.1,11.95
-2,-0.45,11.49,-35.87,-1.3,13.11
-1.95,-0.54,11.27,-46.91,13.58,14.21
-2.34,-0.75,11.22,-51.84,15.35,16.89
-2.67,-0.75,11.35,-60.56,6.26,16.04
-2.66,-0.69,11.79,-70.2,4.37,14.7
-2.74,-0.82,12.2,-80.56,4.86,13.66
-2.87,-0.62,12.69,-89.95,6.5,10.85
-2.49,-1.15,11.73,-102.94,16.57,5.49
-2.3,-1.47,10.89,-107.76,26.14,6.1
-2.33,-1.82,10.59,-112.64,28.03,7.07
-2.52,-2.02,10.31,-116.05,24.25,8.54
-2.57,-2.01,10.07,-122.45,17.66,7.26
-2.07,-2.42,9.17,-126.05,26.5,6.77
-2.04,-2.74,8.74,-125.75,34.86,7.68
-2.29,-3.12,7.99,-126.9,34.19,8.35
-1.97,-3.25,7.39,-130.38,38.46,10.79
-1.64,-3.64,6.47,-127.33,47.24,14.7
-2.16,-3.72,6.79,-127.09,55.41,15.06
-2.52,-4.12,6.56,-125.5,60.41,12.81
-3.11,-4.3,6.2,-126.3,49.37,9.51
-2.92,-4.7,5.7,-127.51,40.65,8.29
-2.72,-5.03,4.49,-122.39,25.04,10.61
-2.61,-5.03,4.19,-125.2,25.53,6.77
-2.49,-5.25,3.84,-120.5,30.29,8.78
-2.62,-5.53,4.42,-113.12,33.94,12.62
-3.07,-5.78,4.23,-107.45,30.77,14.33
-3.29,-6.2,3.65,-109.28,26.63,14.33
-3.07,-6.46,3.33,-104.41,18.52,13.66
-2.61,-6.16,2.99,-103.8,24.43,14.39
-2.35,-6.43,2.48,-105.26,39.61,14.57
-2.35,-6.74,2.04,-101.54,52.48,16.28
-3,-6.97,1.63,-94.28,45.77,23.48
-3.46,-7.33,1.29,-91.66,44.37,25.55
-3.8,-7.15,0.74,-85.44,38.58,21.89
-3.78,-7.55,0.44,-82.33,32.36,16.53
-3.65,-7.62,0.35,-80.08,24.25,18.11
-3.99,-7.82,0.03,-75.75,11.14,18.11
-4.18,-8,-0.34,-69.04,-1.42,19.09
-4.05,-8.31,-0.86,-65.08,-10.81,16.77
-3.52,-8.25,-1.25,-56.97,-13.43,18.54
-3.88,-8.37,-1.36,-50.02,-6.24,20.37
-3.9,-8.54,-1.61,-43.86,6.57,17.62
-4.03,-8.58,-1.69,-37.88,13.27,17.32
-4.35,-8.59,-1.59,-31.11,8.94,19.21
-4.55,-8.65,-1.67,-27.52,-4.29,15.49
-4.18,-8.67,-1.94,-21.42,-13.19,13.96
-3.75,-8.85,-2.16,-14.16,-10.08,13.84
-3.59,-8.84,-1.92,-6.3,-3.25,16.71
-3.68,-8.87,-1.75,0.41,0.65,19.09
-3.88,-8.79,-1.46,5.05,1.2,20.85
-3.95,-8.81,-1.07,7.3,-5.32,21.1
-3.8,-8.7,-0.9,10.9,-4.84,20.12
-3.83,-8.93,-1.07,14.07,-3.5,19.94
-4.09,-8.79,-1.02,17.73,-11.06,20.92
-4.13,-8.82,-1.49,22.54,-22.76,20.73
-3.91,-8.8,-1.73,26.87,-33.49,20.79
-3.71,-8.79,-1.94,34.13,-36.67,21.1
-3.69,-8.64,-1.64,41.33,-32.64,22.62
-3.74,-8.51,-1.27,47.18,-29.04,23.72
-4,-8.45,-1.34,51.75,-33.56,20.85
-3.91,-8.37,-1.58,57.06,-45.26,17.14
-3.53,-8.43,-1.79,64.92,-59.04,18.66
-3.05,-8.29,-1.23,77.06,-60.02,24.21
-3.13,-7.81,-0.35,83.58,-53.25,28.17
-3.76,-7.63,0.28,86.2,-52.4,27.07
-3.81,-7.51,0.35,87.91,-57.52,20.92
-3.5,-7.37,0.23,91.26,-59.96,16.1
-2.95,-7.55,0.26,100.84,-58.19,16.77
-3.24,-7.16,1.52,112.85,-64.29,23.96
-3.56,-6.68,2.66,113.95,-77.4,23.96
-3.08,-6.42,3.64,112.42,-66.18,20.37
-2.74,-6.31,4.47,108.7,-40.57,16.28
-2.75,-6.45,4.55,107.61,-20.02,15.49
-3.39,-6.3,4.66,106.81,-37.21,18.78
-3.37,-5.88,4.9,104.5,-62.95,18.9
-2.48,-5.53,5.6,103.82,-50.69,14.88
-1.73,-5.25,6.42,99.68,-4.65,14.21
-2.4,-5.43,6.6,93.82,23.52,18.17
-3.73,-6.06,6.87,94.8,-3.86,24.64
-4.1,-5.58,7.08,92.97,-66.3,28.29
-2.85,-5.48,6.8,97.48,-77.27,22.87
-1.28,-4.93,6.93,98.28,-18.43,19.33
-1.84,-4.91,6.75,99.07,29.31,25.55
-4.14,-4.93,6.86,97.67,-6.6,29.76
-5.08,-4.33,6.93,87.12,-94.53,25.92
-2.14,-4.52,6.49,93.28,-92.82,15.79
-0.21,-4.27,7.21,97,-13.43,25
-1.93,-4.23,7.12,98.03,16.38,35.06
-3.75,-4.05,6.54,100.29,-20.63,37.5
-4.01,-3.5,6.8,101.02,-83.8,34.7
-1.26,-2.98,7.56,101.08,-56.36,24.03
-0.51,-2.7,8.17,99.62,11.26,34.21
-2.46,-2.51,8.15,94.5,17.54,39.45
-3.55,-2.61,7.52,92,-26.12,40.37
-3.3,-2.44,7.34,101.57,-71.85,32.68
-1.07,-1.6,8.74,103.15,-40.87,23.23
-1.09,-1.22,9.83,97.36,18.21,31.65
-2.72,-1.28,9.56,90.41,10.71,35.31
-3.88,-1.42,9.15,86.81,-48.43,37.44
-2.89,-1.16,9.05,88.89,-79.84,24.51
-0.6,-0.84,10.03,89.8,-23.31,22.93
-1.48,-0.67,10.75,85.04,20.77,28.23
-3.13,-0.75,10.47,78.09,0.29,29.15
-3.4,-0.42,10.1,68.89,-40.57,27.56
-2.22,-0.39,10.17,66.39,-48.49,22.99
-1.17,-0.22,10.43,65.9,-9.23,24.45
-1.83,0,10.61,61.02,16.02,29.03
-3.13,0.17,10.9,52.73,-7.76,28.84
-3.11,0.14,10.45,47.12,-33.92,24.21
-2.13,0.31,10.26,44.98,-29.17,19.33
-1.53,0.41,10.53,42.54,0.47,22.44
-2.35,0.26,10.61,38.34,1.63,25.73
-2.73,0.42,10.37,31.57,-15.39,22.99
-2.5,0.58,10.05,26.39,-24.47,20
-2.12,0.59,10.27,20.41,-14.71,18.11
-2.06,0.34,10.42,23.03,-1.73,19.45
-2.37,0.59,10.1,13.09,-5.93,18.9
-2.29,0.36,9.89,9.25,-10.2,18.6
-2.03,0.51,9.61,7.3,-5.75,17.81
-2.07,0.47,9.73,2.48,-4.35,17.44
-2.09,0.47,9.73,1.2,-10.14,17.56
-1.84,0.45,9.25,0.29,-7.89,17.2
-1.87,0.43,9.15,-0.5,-6.91,17.74
-1.22,0.25,7.25,29.07,4.13,28.6
-1.73,-0.55,9.12,32,14.74,29.94
-2.13,0.24,9.14,23.03,12.72,19.09
-2.21,0.08,9.04,14.13,4.98,10.73
-1.93,0.1,9.17,1.57,-6.6,7.38
-1.44,-0.19,8.82,-8.55,-13.8,9.7
-1.57,-0.44,8.67,-11.54,-15.57,6.89
-2.03,-0.08,9.08,-13.31,-24.84,0.61
-1.93,0.58,8.7,-21.6,-28.8,-0.3
-1.49,0.87,8.33,-22.45,-24.96,14.76
-1.72,-0.09,8.71,-23.49,-19.59,20.18
-0.61,0.52,8.45,-24.53,-14.41,26.1
-1.45,-0.02,8.32,-21.48,-16.3,20.61
-1.68,-0.59,8.82,-10.44,-8.62,17.01
-1.67,-0.4,8.62,-0.38,-4.65,16.65
-1.59,-0.11,8.52,7.18,-2.4,19.76
-1.59,-0.5,8.88,12.61,-2.89,21.04
-1.79,-0.31,9.02,8.15,-2.21,18.48
-1.73,-0.13,9.11,5.84,-1.73,16.77
-1.75,-0.16,9.14,6.45,-2.4,16.95
-1.85,-0.07,9.35,4.44,-5.32,15.37
-1.53,-0.04,9.32,4.92,-1.18,15.43
-1.57,-0.04,9.39,3.15,1.08,16.65
-1.68,0.09,9.83,-4.28,2.66,17.2
-1.9,0.2,10.45,-11.11,-0.63,17.38
-1.91,0.12,10.48,-17.09,-1,16.59
-1.94,0.05,10.74,-22.15,-0.81,17.93
-1.73,-0.34,10.84,-29.41,6.32,14.76
-1.63,-0.26,10.92,-32.88,8.03,17.44
-1.66,-0.59,10.88,-39.34,10.71,18.11
-1.87,-0.54,11.12,-47.33,7.79,20.06
-2.02,-0.67,11.39,-54.65,11.63,20.67
-2.63,-0.71,11.54,-60.93,16.26,18.48
-3,-0.79,11.63,-67.94,16.57,12.99
-2.94,-0.88,11.71,-75.56,19.92,4.76
-2.95,-0.92,12.01,-82.27,22.3,4.15
-2.75,-1.32,11.76,-95.44,24.92,-1.46
-2.77,-1.5,11.83,-107.33,22.72,-1.04
-2.67,-1.61,11.59,-116.17,18.27,-1.83
-2.6,-1.51,11.57,-125.14,21.99,-2.19
-2.57,-1.98,10.78,-132.88,30.35,-6.16
-2.18,-2.4,9.43,-139.89,41.57,-3.05
-1.99,-2.88,9.1,-138.49,45.59,0.98
-2.31,-2.84,8.85,-141.05,41.57,7.32
-2.34,-3.25,7.64,-148.06,44.19,3.6
-2.26,-3.54,7.39,-143.43,38.15,7.93
-1.93,-3.62,6.47,-145.69,41.57,8.48
-2.03,-3.57,6.44,-151.17,54.43,6.22
-1.98,-4.33,5.3,-146.78,55.65,11.77
-2.82,-4.14,5.5,-140.62,37.6,16.4
-2.69,-4.61,4.12,-141.48,29.43,14.76
-2.65,-5.37,3.31,-135.62,20.16,10.98
-2.62,-5.17,3.58,-126.72,10.9,11.04
-2.54,-5.39,3.4,-122.03,13.82,11.22
-2.3,-5.87,2.56,-118.86,19.49,13.23
-2.43,-5.91,2.43,-113.49,20.71,18.17
-2.5,-6.58,1.94,-105.75,14.07,22.68
-2.64,-6.68,1.79,-95.44,-1.48,24.88
-2.55,-6.67,1.37,-93.86,-3.56,25.37
-2.51,-6.81,1.21,-90.62,8.7,25.31
-2.91,-7.05,1.31,-86.36,18.21,27.07
-3.21,-6.99,1.42,-86.17,23.76,28.42
-3.41,-7.78,0.22,-84.89,17.85,26.59
-3.63,-7.9,0.15,-74.65,5.71,25.55
-3.62,-7.92,0.16,-67.39,-13.8,26.89
-3.67,-7.81,0.12,-65.87,-21.18,25.73
-3.45,-8.13,0.04,-61.72,-8.31,26.16
-3.59,-8.19,-0.2,-56.78,9.43,26.34
-3.85,-8.36,-0.98,-55.26,20.22,25.79
-4.19,-8.66,-1.22,-44.95,20.96,23.66
-4.41,-8.73,-1.57,-38.25,5.16,22.44
-4.31,-8.75,-1.51,-33.31,-14.17,20
-3.96,-8.75,-1.56,-26.48,-22.03,20.37
-3.68,-8.72,-1.66,-20.75,-16.6,21.34
-3.45,-8.88,-1.98,-14.41,-1.12,22.14
-3.7,-8.98,-2.14,-6.11,9.49,24.7
-4.12,-8.87,-1.99,1.02,6.38,25.55
-4.25,-8.93,-1.73,9.01,-4.9,24.33
-4.3,-9,-1.65,14.37,-15.2,24.27
-4.1,-8.83,-1.46,20.04,-15.81,22.81
-3.96,-8.81,-1.5,24.68,-11.36,22.44
-3.92,-8.79,-1.49,30.11,-4.71,22.14
-4.43,-8.76,-1,37.79,-3.31,23.54
-4.89,-8.57,-0.92,39.98,-14.47,20.49
-5.1,-8.66,-1.41,41.45,-33.92,14.27
-4.35,-8.66,-1.65,48.76,-45.69,9.39
-3.53,-8.66,-1.78,56.57,-36.12,8.48
-3.12,-8.6,-1.6,67.61,-13.07,12.81
-3.51,-8.33,-1,76.26,0.04,16.28
-4.17,-8.08,-0.58,82.73,-9.53,16.95
-4.24,-7.99,-1.01,86.93,-28.37,13.84
-3.91,-7.65,-0.75,93.7,-43.56,12.62
-3.17,-7.54,-0.81,99.13,-38.01,10.31
-2.85,-7.14,-0.43,107,-23.62,10.61
-3.26,-6.89,0.08,116.51,-27.82,14.39
-3.5,-6.42,0.5,121.08,-47.09,14.15
-3.06,-6.2,0.88,126.39,-62.88,15.43
-2.18,-5.98,1.66,136.69,-53.07,12.99
-2.04,-5.46,2.94,147.91,-28.74,14.94
-2.63,-4.98,4.02,145.9,-24.1,17.07
-3.12,-4.91,4.24,139.25,-52.21,20.61
-2.67,-4.89,4.35,137.36,-67.15,20.67
-2.37,-4.38,6.12,141.69,-70.87,20.67
-1.6,-4.18,7.3,141.69,-40.63,18.42
-2.1,-4.06,8.04,138.52,-26.42,21.95
-2.69,-3.92,7.79,130.17,-41.6,24.39
-2.99,-4,7.25,122.18,-75.81,25.24
-1.59,-3.66,7.32,122.48,-66.79,12.99
-1.02,-2.86,9.29,113.34,-24.9,12.32
-1.93,-2.94,10.08,100.65,-22.09,17.2
-2.84,-3.35,9.42,95.65,-57.76,22.44
-1.82,-3.59,8.41,103.95,-66.42,14.27
-0.32,-3.17,8.56,111.14,-20.51,17.44
-1.02,-2.63,8.44,107.67,12.24,25.73
-3.34,-2.21,9.43,90.17,-33.25,24.45
-3.12,-2.94,8.31,88.52,-87.09,18.23
-0.24,-2.33,8.86,97.73,-49.59,12.68
0.13,-2.21,9.28,99.31,18.33,24.94
-1.78,-2.27,8.79,98.15,25.41,35.31
-3.28,-2.08,8.15,98.58,-25.99,38.35
-3.47,-1.76,8.13,97.61,-90.87,30
-0.01,-1.08,9.08,101.02,-29.35,15.73
0.08,-1.09,9.74,101.63,44.49,30
-2.73,-0.72,10.35,94.01,18.46,35.98
-3.15,-0.84,9.62,90.59,-35.26,34.57
-2.11,-0.34,9.26,91.2,-60.26,31.16
-1,0.33,10.65,82.97,-19.41,21.53
-1.4,0.56,11.54,77.79,16.69,28.23
-2.84,0.6,12.27,64.92,-7.82,30.67
-2.87,0.53,11.49,56.63,-43.74,25.85
-1.44,0.6,11.1,54.86,-35.87,19.27
-0.65,0.8,11.7,49.86,-3.92,20.55
-1.19,0.79,11.81,41.63,5.53,22.74
-1.73,0.71,11.55,32.42,-9.9,24.51
-1.75,0.66,10.84,28.7,-18.43,26.46
-1.61,0.91,10.76,24.62,-16.12,24.03
-1.34,0.78,10.59,19.37,-6.24,23.17
-1.82,0.87,10.27,18.09,-6.24,23.35
-1.97,0.83,9.82,10.41,-14.84,22.74
-1.71,0.58,9.67,8.64,-17.28,21.28
-2.2,-0.11,7.66,17.61,15.1,20.37
-2.48,0.15,9.02,23.7,19,14.33
-2.24,0.22,9.12,13.09,8.52,8.42
-1.74,0.23,8.74,6.81,4.49,6.46
-1.74,0.28,8.85,-1.66,-3.01,9.27
-1.78,0.28,8.79,-13.49,-14.17,12.56
-1.82,0,8.77,-18.86,-18.07,7.81
-1.85,0.51,8.78,-24.95,-19.9,3.84
-1.87,0.72,8.58,-26.05,-24.78,12.99
-1.85,0.28,8.6,-26.36,-25.81,18.54
-1.79,-0.22,8.46,118.58,8.7,15.18
-1.61,-0.9,8.82,-10.44,-20.39,18.48
-1.34,0.02,8.17,-10.32,-8.68,17.32
-1.69,-0.26,8.7,0.35,-11.91,19.21
-1.64,0,8.97,3.09,-10.14,21.22
-1.58,-0.1,9.04,2.06,-6.3,22.01
-1.78,-0.04,9,3.64,-4.35,20.06
-1.78,0,8.86,5.29,-4.17,19.15
-1.82,-0.11,8.91,7.61,-4.96,17.81
-1.87,0.03,9.1,7.97,-4.04,14.39
-1.86,0.32,9.48,3.76,-2.95,15
-1.76,0.56,10.06,-2.88,-4.65,16.1
-1.55,0.39,10.05,-11.91,-5.14,20.55
-1.83,0,10.08,-15.32,-4.17,20.12
-1.95,-0.05,10.19,-17.03,-7.7,18.84
-1.99,0.27,10.97,-21.91,-6.36,16.71
-1.88,0.08,11.39,-27.33,-1.73,15.06
-1.87,0.38,11.7,-33.25,1.14,15.98
-1.65,0.04,11.5,-45.32,2.91,16.22
-1.53,-0.33,10.73,-50.5,9.13,18.29
-1.86,-0.16,11.02,-54.89,9.68,20.49
-1.97,-0.75,11.11,-63.55,12.3,17.74
-2.43,-0.24,11.89,-72.45,14.55,18.72
-2.78,-0.45,11.79,-85.08,18.52,12.62
-2.39,-0.66,11.73,-91.54,22.85,10.18
-2.71,-0.97,11.71,-99.65,23.64,7.01
-2.4,-1.54,11.1,-104.47,22.36,1.71
-2.25,-1.43,11.89,-111.11,24.74,2.62
-2.54,-1.67,11.37,-122.64,25.04,3.54
-2.49,-2.37,10.04,-130.75,19.74,1.04
-2.22,-2.2,9.86,-134.34,17.42,1.22
-1.62,-2.84,9.02,-134.59,31.26,5.61
-2.05,-2.95,8.32,-133,39.19,10.73
-2.29,-3.21,7.67,-136.23,42.24,10.37
-2.37,-3.52,7.33,-136.05,31.38,11.04
-2.24,-3.62,7.09,-136.05,26.14,10.85
-1.94,-3.57,7.12,-134.4,27.97,14.33
-2.32,-4.25,6.81,-134.47,32.79,15
-2.34,-4.37,5.88,-138.19,25.89,10.49
-2.15,-4.97,4.98,-130.75,23.94,7.81
-2.16,-5.23,4.74,-117.88,19.37,9.39
-2.27,-4.94,4.7,-113.06,20.47,9.39
-2.34,-4.71,4.75,-118.12,16.93,15.55
-2.31,-5.47,4.07,-122.27,4.92,22.62
-2.41,-5.93,3.39,-114.28,4.13,24.45
-2.52,-6.24,3.41,-101.05,5.71,26.4
-2.66,-6.51,3.01,-84.65,8.52,25.73
-2.73,-6.56,2.85,-69.65,13.27,21.4
-2.78,-5.87,3.49,-76.54,17.24,22.38
-2.88,-5.58,3.32,-106.97,7.54,28.05
-2.9,-6.67,1.95,-105.08,14.13,30.31
-3.15,-7.47,0.56,-100.2,25.77,26.28
-3.4,-8.06,-0.34,-77.58,30.47,27.38
-3.64,-7.7,-0.25,-66.36,25.71,20.73
-3.79,-7.53,-0.49,-61.42,9.37,14.64
-3.52,-8.05,-0.69,-60.93,-4.29,14.64
-2.64,-8.45,-1.39,-60.99,-7.76,19.45
-2.66,-8.21,-1.5,-52.94,-2.52,27.38
-2.86,-8.6,-2.15,-44.41,7.72,30.85
-3.38,-8.66,-2.11,-35.63,13.39,33.17
-4.16,-8.55,-1.77,-28.25,9.49,31.46
-4.36,-9.09,-2.01,-18.49,0.59,27.5
-4.13,-9.11,-1.67,-6.72,-4.47,25.61
-3.99,-8.8,-1.02,-1.72,-5.57,26.34
-3.91,-8.85,-0.39,2.18,-0.14,25.98
-4.17,-8.76,-0.06,5.29,1.57,25.98
-4.53,-8.82,0.2,8.46,-1.85,22.2
-4.41,-8.76,0.42,10.84,-4.47,17.81
-4.2,-8.75,0.39,11.33,-4.04,13.72
-3.89,-8.89,0.35,14.74,-4.23,12.14
-3.63,-8.84,0.08,17.3,-6.42,15.18
-3.86,-8.89,-0.27,19.13,-13.49,17.93
-4.05,-8.97,-0.86,23.09,-27.03,15.61
-3.55,-8.9,-1.47,31.14,-34.65,12.74
-3.17,-8.99,-1.89,39.5,-37.7,12.14
-2.85,-8.99,-2.29,49.98,-37.88,12.56
-2.86,-8.73,-2.35,58.15,-48.62,16.77
-3.17,-8.47,-2.43,68.89,-60.02,21.34
-3.18,-8.11,-2.12,81.81,-71.97,20.92
-2.59,-7.75,-1.24,93.09,-59.59,15.61
-2.45,-7.26,-0.22,98.46,-45.63,16.22
-3.11,-6.86,0.72,100.96,-50.69,20.55
-3.11,-6.99,0.69,105.17,-64.53,18.17
-2.51,-6.53,1.65,114.92,-60.81,15.85
-2.1,-6.1,2.64,115.84,-39.59,14.51
-2.97,-5.95,3.18,113.46,-43.43,16.04
-3.52,-5.58,3.11,106.26,-82.7,14.39
-1.7,-5.49,2.23,105.04,-80.99,6.83
-0.38,-5.21,3.16,109.86,-30.87,7.87
-1.44,-5.04,4.79,115.65,-12.89,19.39
-3.12,-4.56,5.48,113.21,-57.09,25.49
-1.95,-4.36,5.18,114.43,-70.51,10.92
0.14,-4.08,5.28,118.21,-9.84,11.95
-1.32,-3.99,6.48,119.37,13.7,28.17
-3.59,-3.57,7.63,117.42,-51.18,34.09
-2.67,-3.06,8.01,114.98,-83.37,13.42
0.16,-3.06,8.57,111.81,-26.3,8.11
-0.15,-3.58,8.65,112.54,41.26,20.79
-2.75,-4.09,8.17,119.86,22.97,40.49
-4.83,-3.73,8.27,125.96,-70.32,38.78
-2.86,-3.07,7.59,129.37,-108.01,16.46
0.52,-2.41,8.69,130.17,-23.92,11.53
-0.87,-2.64,9.95,121.39,34.31,27.87
-3.2,-3.14,9.07,120.59,7.18,37.32
-4.19,-2.5,8.44,126.2,-62.4,32.81
-2.26,-1.87,8.35,134.68,-70.69,17.87
-0.81,-0.98,9.92,134.5,-12.82,16.71
-1.97,-1,10.99,126.69,6.57,20.43
-3.21,-1.12,10.72,121.57,-32.89,23.66
-2.89,-0.84,9.93,116.32,-82.27,20.49
-0.24,-0.03,10.75,114.68,-47.58,12.26
0.21,0.6,12.48,103.52,9.98,26.53
-1.73,0.51,12.81,85.47,4.74,27.5
-2.31,0.21,11.9,74.68,-36.18,24.76
-1.82,0.21,10.89,73.4,-62.76,20.18
-0.45,0.33,11.14,73.82,-42.64,15.37
0.13,0.65,11.62,71.02,-3.62,22.01
-0.95,0.92,12.18,53.58,-2.64,27.81
-1.41,0.87,11.09,45.35,-22.09,28.78
-1.3,0.74,10.78,39.74,-33.8,26.77
-0.5,0.74,10.66,37.3,-23.19,25.31
-0.27,0.63,11.5,39.92,0.22,26.77
-1.31,1.04,11.48,25.65,-3.31,30.31
-1.56,0.96,11.16,12.79,-12.82,25.43
-1.46,0.81,10.64,8.83,-17.15,22.93
-1.04,0.77,10.33,4.44,-13.37,21.28
-0.92,0.72,10.24,1.08,-9.23,21.4
-1,0.65,10.13,-2.09,-11.06,22.32
-0.91,0.62,9.66,-3.43,-10.51,22.38
-0.92,0.72,9.58,-6.24,-5.51,22.26
-1.62,0.52,8.57,27.48,20.96,10.06
-1.74,-0.13,9.03,23.95,13.09,11.53
-1.77,-0.33,9.01,17.18,4,14.7
-1.75,-0.03,8.75,9.62,-6.12,19.39
-1.71,-0.03,8.73,1.94,-11.97,20.92
-1.82,-0.01,8.9,-4.28,-13.74,17.56
-1.91,-0.11,9.06,-9.89,-21.24,12.5
-1.82,0.31,8.96,-19.16,-25.51,8.29
-1.92,0.08,8.75,-19.77,-28.98,9.45
-1.82,-0.16,8.73,-16.66,-28.56,9.51
-1.47,-0.18,8.47,6.75,-15.51,15.79
-1.3,-0.77,8.72,-4.47,-13.86,14.21
-1.37,-0.37,8.99,-5.75,-12.28,16.59
-1.44,-0.2,8.98,-5.2,-10.75,19.03
-1.45,-0.22,8.9,-3.37,-8.01,20.67
-1.58,-0.39,8.98,-1.6,-5.93,21.34
-1.6,-0.32,9.07,0.11,-5.81,21.04
-1.67,-0.28,9.14,0.53,-5.57,20.55
-1.62,-0.26,9.11,-0.38,-2.7,19.33
-1.7,-0.17,9.38,-3.67,-3.43,18.6
-1.73,-0.28,9.37,-5.32,-4.65,17.62
-1.81,-0.33,9.52,-6.85,-2.82,16.89
-1.99,-0.32,9.72,-10.38,-4.71,15.67
-1.91,-0.18,9.94,-12.88,-6.36,14.76
-1.97,-0.07,10.48,-16.48,-8.92,15.06
-1.85,-0.27,10.62,-20.87,-5.26,12.56
-1.72,-0.48,11.02,-26.24,-0.69,12.38
-1.77,-0.39,11.42,-35.14,2.36,12.32
-1.78,-0.6,11.41,-43.13,2.97,13.6
-1.81,-0.85,11.26,-48.8,5.47,13.48
-1.88,-0.66,11.93,-55.87,13.09,12.26
-2,-0.88,12.19,-63,22.91,10.49
-2.31,-1.1,11.86,-71.78,24.13,7.75
-2.38,-1.39,11.12,-78,18.33,4.7
-2.35,-1.41,11.12,-84.04,11.87,4.57
-2.18,-1.48,11.32,-90.08,8.88,5.61
-2.09,-1.75,11.06,-99.28,10.77,4.21
-1.95,-1.82,11.03,-101.05,15.71,4.21
-1.83,-1.87,10.76,-107.15,21.2,3.11
-1.55,-2.52,9.54,-113.92,28.09,2.62
-1.47,-2.63,9.01,-118.73,23.39,9.39
-1.46,-2.82,8.55,-119.71,20.83,14.51
-1.28,-3.19,8.17,-120.44,31.2,16.89
-1.47,-3.33,7.91,-119.4,43.39,18.84
-2.07,-3.64,7.7,-118.61,41.99,20.67
-2.1,-3.78,7.05,-120.99,29.98,20.43
-1.76,-3.95,6.86,-123.92,32.79,20.18
-1.51,-4.17,6.59,-124.34,50.96,21.46
-1.79,-4.38,6.19,-123.8,63.7,23.29
-2.36,-4.86,5.57,-118.06,63.7,25.98
-2.8,-5.02,5.28,-119.47,51.44,25.43
-2.85,-5.25,4.78,-117.15,42.91,24.7
-3.14,-5.18,4.8,-114.04,31.2,25.31
-3.1,-5.02,5.13,-118.8,31.38,22.07
-2.82,-5.62,4.68,-119.28,37.97,21.1
-2.82,-5.91,4.06,-119.04,43.76,20.18
-3.03,-5.76,3.37,-122.39,41.69,19.94
-3.11,-6,3.01,-123.49,33.94,19.94
-2.98,-6.63,2.75,-118.31,26.08,22.38
-3.2,-6.35,2.65,-120.44,13.21,22.87
-3.37,-6.61,2.26,-118.8,4.49,27.26
-3.18,-6.85,1.17,-116.66,16.69,25.24
-3.49,-6.69,0.91,-117.45,25.35,23.9
-3.66,-7.56,-0.29,-111.48,35.41,22.44
-3.66,-7.49,-1.33,-103.8,33.27,20.37
-3.69,-7.66,-1.85,-94.89,26.81,22.62
-3.76,-7.81,-2.44,-86.97,17.79,24.51
-4.22,-8.13,-2.92,-76.42,8.94,22.38
-4.23,-8.19,-3.3,-67.33,-0.93,19.7
-4.05,-8.29,-3.56,-56.84,-6.85,17.93
-4,-8.32,-3.4,-45.5,-8.68,20.98
-3.97,-8.57,-3.45,-35.56,-3.31,23.17
-4.16,-8.67,-3.43,-25.56,-0.32,21.95
-4.19,-8.82,-2.99,-14.47,-1.54,22.68
-4.45,-8.7,-2.64,-7.52,-9.29,22.5
-4.47,-8.81,-2.42,-0.44,-13.74,21.77
-4.34,-8.77,-2.06,5.11,-12.76,21.34
-4.2,-8.86,-1.72,12.18,-3.37,19.88
-4.14,-8.81,-1.28,15.23,2.05,20.73
-4.34,-8.73,-1.04,18.22,3.76,22.5
-4.5,-8.87,-0.65,20.72,2.72,20.92
-4.65,-8.75,-0.47,20.35,1.5,18.17
-4.63,-8.9,-0.47,21.02,-4.47,16.71
-4.62,-8.79,-0.44,20.65,-14.59,14.09
-4.33,-8.82,-0.68,22.18,-21.06,16.22
-4.08,-8.73,-0.87,21.75,-18.49,15.31
-3.85,-8.82,-1.27,24.86,-11.18,15.79
-3.97,-8.92,-1.7,30.23,-8.37,18.66
-4.15,-8.79,-1.93,36.51,-15.2,19.09
-4.28,-8.82,-2.25,44.92,-27.82,20.31
-4.28,-8.65,-2.22,54.25,-41.36,21.4
-4.24,-8.4,-1.86,63.52,-51.97,23.96
-4.12,-8.15,-1.53,71.51,-56.97,23.96
-4.05,-8.03,-1.05,80.41,-57.21,22.32
-3.94,-7.82,-0.65,84.13,-56.91,18.78
-3.47,-7.81,-0.53,87.12,-50.38,15.12
-3.12,-7.63,-0.65,94.56,-35.2,12.93
-3.3,-7.38,-0.31,102.36,-27.28,15.31
-3.51,-7.19,-0.65,107.24,-30.08,13.23
-3.42,-7,-0.09,116.51,-35.26,14.51
-3.3,-6.5,0.28,118.4,-40.57,10.49
-2.62,-6.31,0.51,125.04,-30.08,8.72
-2.52,-6.02,0.98,131.02,-21.24,13.17
-3.02,-5.4,1.69,135.47,-28.37,18.42
-3.32,-5.23,2.13,135.59,-42.88,18.78
-3.68,-4.97,3.05,141.81,-63.62,16.89
-3,-4.97,3.76,151.14,-68.8,10.73
-2.45,-4.08,4.75,155.29,-59.35,8.48
-2.26,-3.76,5.47,149.86,-47.21,9.39
-2.32,-4.05,5.01,146.63,-50.81,14.64
-1.74,-3.74,4.9,140.53,-45.2,15.37
-1.23,-4.21,4.74,154.92,-19.84,19.27
-1.95,-3.67,5.2,162.36,-26.54,24.7
-2.34,-3.6,4.75,174.74,-61.42,30.49
-1.52,-2.77,4.46,185.04,-72.7,27.26
-0.64,-1.02,7.41,187.42,-44.96,24.39
-1.17,-1.06,8.98,185.84,-27.58,36.22
-2.81,-0.99,10.87,185.59,-72.03,45.55
-2.16,-0.5,11.05,179.43,-121.97,44.82
0.5,0.08,11.55,175.78,-71.67,34.21
-0.1,1.24,14.23,153.21,-0.2,33.96
-2.39,0.14,14.23,135.17,-4.59,40.67
-3.52,0.64,13.88,120.41,-50.08,42.74
-2.55,0.64,13.92,108.34,-67.52,37.32
-1.17,1.12,14.55,90.71,-21.42,27.2
-1.61,0.84,14.12,77.61,15.04,28.6
-2.74,0.79,13.33,62.06,-11.67,27.62
-2.32,0.61,11.83,51.93,-31.06,26.28
-1.95,0.83,11.45,45.84,-31.91,26.04
-1.37,1,11.22,40.72,-0.57,21.04
-1.73,0.93,10.97,35.9,22.91,23.72
-2.79,1.18,10.96,26.94,-2.64,25
-2.46,1.02,10.54,22.42,-25.57,22.07
-1.92,1.23,10.65,16.08,-26.91,20
-1.48,1.26,10.58,9.8,-6.85,17.38
-1.77,0.85,10.56,6.02,1.5,16.65
-1.87,0.91,10.19,-0.75,-9.78,17.56
-1.61,0.59,9.82,-3.98,-13.86,17.68
-1.34,0.42,9.43,-4.04,-11.48,17.62
-1.25,0.24,9.16,-3.67,1.5,17.74
-2.28,-0.43,8.1,3.51,3.69,-0.13
-0.82,-0.49,8.81,2.6,8.15,2.86
-0.72,-0.34,8.82,1.93,9.24,5.36
-0.7,-0.53,8.86,1.56,11.62,4.87
-0.75,-0.5,8.87,0.71,10.16,3.53
-0.62,-0.52,8.85,1.99,10.34,4.87
-0.45,-0.6,8.68,3.64,15.83,6.4
-0.76,-0.36,9.32,-2.89,14.97,7.07
-0.99,-0.56,9.08,-7.83,10.95,-0.19
-1.25,-0.7,9.2,-8.62,5.71,-13.6
-1.2,-0.69,8.79,-3.99,7.9,-24.7
2.31,-19.6,3.97,8.21,-19.23,-35.98
-1.15,-0.36,8.97,-1.3,13.69,4.99
-0.74,-0.55,9.11,-0.69,13.88,10.42
-0.76,-0.7,8.98,5.16,3.82,12.62
-0.9,-0.66,8.91,6.44,5.22,7.01
-1.11,-0.59,9.15,6.68,9.49,-0.86
-1.05,-0.48,8.94,7.05,8.88,-4.82
-0.91,-0.27,9.35,12.78,2.66,1.64
-1.12,-0.62,9.67,4.18,7.72,0.3
-1.25,-0.69,9.14,-0.02,10.89,-1.04
-1.47,-0.51,9.41,-4.96,10.89,-5.49
-1.2,-0.59,9.24,-9.47,8.94,-7.2
-0.98,-0.65,9.29,-7.34,9.85,-7.81
-1,-0.55,9.45,-4.78,8.69,-6.9
-1,-0.45,9.77,-4.47,7.29,-4.34
-1.09,-0.31,10.39,-6.91,5.34,-2.14
-0.98,-0.38,10.22,-12.1,5.52,-1.16
-0.92,-0.52,10.29,-17.34,10.1,-1.96
-1.04,-0.49,10.47,-23.5,15.58,-3.66
-1.23,-0.4,10.67,-25.51,12.54,-3.91
-1.15,-0.3,11.07,-28.86,8.02,-1.65
-1.09,-0.43,11.06,-37.58,10.34,-0.98
-1.16,-0.45,11.26,-47.22,13.69,-1.16
-1.09,-0.83,10.85,-55.27,15.77,-3.54
-1,-1.05,10.95,-60.02,13.02,-3.48
-0.91,-1.12,10.86,-62.16,12.78,-2.99
-1.06,-1,11.44,-66.61,8.39,-2.02
-0.79,-1.16,11.27,-75.94,6.07,1.27
-0.63,-1.32,10.94,-88.68,16.93,1.58
-0.72,-1.71,10.55,-100.08,24.36,1.27
-0.8,-1.97,9.94,-105.14,23.02,0.05
-0.76,-2.06,10.05,-109.53,18.94,2.55
-0.49,-2.53,9.59,-115.63,20.95,5.54
-0.67,-2.77,9.39,-120.57,27.54,7.19
-0.97,-3.07,9.1,-122.7,28.57,5.36
-1.04,-3.02,8.82,-127.46,20.1,4.87
-0.67,-3.59,8.04,-130.45,23.33,5.42
-0.7,-3.91,7.24,-126.3,35.34,7.49
-1.05,-3.97,6.84,-126.3,44.36,6.34
-1.32,-4.25,6.44,-123.19,38.88,3.96
-1.25,-4.58,6.23,-118.44,27.29,3.96
-0.9,-5.17,5.66,-111,29.79,7.01
-1.2,-5.13,5.88,-100.08,31.13,9.26
-1.69,-5.11,5.85,-95.33,28.69,6.88
-1.59,-5.31,5.56,-90.88,26.25,3.1
-1.36,-5.59,5.36,-90.69,31.86,1.21
-1.5,-5.93,5.36,-90.14,39.91,4.2
-2.08,-5.94,5.38,-89.78,29.12,4.26
-1.95,-6.02,5.38,-87.58,17.35,3.53
-1.66,-6.51,4.92,-85.75,19.06,4.02
-2.15,-6.4,5.6,-83.44,17.6,3.65
-1.97,-6.84,4.94,-80.82,17.35,2.01
-1.87,-6.87,4.76,-83.13,18.63,3.53
-1.64,-7.24,4.14,-88.13,25.34,6.95
-1.7,-7.4,3.61,-84.96,26.25,10.18
-1.99,-7.35,3.38,-79.11,20.46,12.74
-2.22,-7.68,3.35,-74.47,22.35,11.4
-2.49,-7.74,3.2,-74.84,25.64,10.42
-2.6,-7.77,2.23,-74.66,30.16,6.27
-2.61,-8.34,1.84,-70.27,36.01,1.76
-2.43,-8.45,1.9,-66.55,30.46,1.03
-2.68,-8.23,2.25,-68.68,22.96,2.25
-2.93,-8.45,1.8,-69.9,23.94,3.71
-3.23,-8.5,1.85,-66.61,29.55,0.66
-3.18,-8.62,1.36,-63.19,29.79,-1.23
-3.05,-8.71,1.33,-58.62,16.68,-4.52
-2.91,-8.95,1.18,-58.93,7.72,-7.2
-2.66,-8.89,0.79,-61.3,8.57,-7.08
-2.61,-8.9,0.04,-62.22,20.4,-6.84
-2.56,-9.08,-0.54,-56.55,37.35,-9.64
-2.45,-9.11,-0.65,-50.08,37.96,-9.46
-2.45,-9.39,-1.16,-44.41,22.54,-8.3
-2.16,-9.65,-1.62,-37.77,8.57,-6.71
-2.03,-9.57,-1.84,-27.04,4.43,-1.96
-2.04,-9.56,-1.96,-18.07,14.67,-0.31
-1.97,-9.4,-1.84,-13.62,27.66,-1.16
-2.23,-9.26,-1.59,-5.51,25.58,3.65
-2.47,-9.66,-1.34,0.95,18.45,2.31
-2.65,-9.6,-1.22,10.1,7.96,1.88
-2.7,-9.55,-0.82,16.26,5.1,-0.68
-2.37,-9.4,-0.9,21.14,2.66,-0.37
-2.17,-9.47,-0.86,27.11,6.01,2.13
-2.23,-9.48,-0.63,30.77,7.84,3.1
-2.44,-9.35,-0.6,32.66,3.39,0.6
-2.44,-9.41,-0.38,39.18,-3.32,-2.08
-2.3,-9.21,-0.46,42.23,-11.06,-4.95
-2.04,-9.36,-0.49,48.82,-13.62,-0.86
-1.93,-9.34,-0.22,56.5,-10.88,1.82
-1.94,-9.2,0.09,61.26,-4.05,5.18
-2.12,-8.93,0.9,63.51,-1.67,9.2
-2.61,-8.71,1.09,63.39,-8.99,6.82
-2.51,-8.6,0.98,64.43,-18.99,3.16
-2.2,-8.74,1.04,69,-20.09,0.48
-1.67,-8.62,1.2,74.18,-7.04,1.03
-1.52,-8.7,1.56,78.82,16.99,6.4
-2.37,-8.04,2.6,80.34,25.58,10.24
-3.1,-7.97,2.36,76.32,0.4,7.98
-2.6,-8.26,1.47,75.52,-21.98,0.85
-1.79,-8.16,1.32,81.62,-23.56,0.3
-1.34,-8.11,1.36,89.31,-1.37,3.53
-2.36,-7.31,2.91,99.06,5.46,8.77
-3.01,-6.92,3.33,95.77,-13.81,4.38
-2.64,-7.02,3.29,95.59,-31.12,1.27
-1.84,-6.94,3.03,95.65,-18.93,-3.54
-1.18,-6.76,3.07,99.67,11.5,-4.52
-1.59,-6.32,3.59,106.5,20.46,2.13
-2.36,-6.07,4.28,112.29,-9.17,11.4
-2.74,-5.35,4.78,112.41,-53.81,18.29
-1.36,-5.3,4.29,110.46,-47.89,8.71
-0.23,-5.17,3.93,108.88,15.16,2.86
-1.11,-4.85,4.57,108.15,50.64,3.65
-2.49,-4.08,5.42,112.66,4.12,9.87
-2.87,-3.55,6.6,104.85,-66.18,8.59
-1.13,-3.64,6.75,99.55,-59.29,-6.16
0.22,-3.36,7.03,97.96,34.97,-13.73
-0.82,-3.65,6.98,91.56,81.62,-6.77
-2.21,-3.87,6.27,96.01,35.1,3.23
-2.79,-4.04,5.73,116.62,-50.33,7.55
-1.24,-3.25,7.18,142.29,-57.89,-2.57
-0.53,-1.77,10.31,133.7,17.84,-3.79
-2.06,-1.58,11.81,100.22,54.85,0.42
-3.41,-3.28,10.2,94.49,9.06,-4.76
-2.45,-3.33,8.55,110.83,-48.07,-15.92
0,-3.4,8.53,125.34,-18.5,-11.84
0.36,-2.73,8.9,120.46,41.5,5.12
-2.11,-2.47,9.22,116.38,29.43,19.63
-4.09,-2.42,9.41,121.99,-51.67,17.37
-3.01,-1.75,10.35,123.27,-79.84,6.88
-0.97,-1.39,11.66,112.48,-11.37,7.74
0.59,0.03,6.28,5.83,10.22,-4.03
-1.7,-0.63,8.98,9.06,15.1,-0.25
-1.54,-0.23,8.89,7.11,10.52,-0.68
-1.38,-0.25,8.89,4.55,6.19,1.34
-1.27,-0.36,8.96,0.95,4.79,5.18
-1.35,-0.35,8.88,-3.74,6.01,5.91
-1.57,-0.35,8.8,-1.97,8.82,2.49
-2.02,-0.29,9.22,-3.99,3.39,-4.7
-1.75,0.13,8.88,-11.43,1.01,-5.49
-1.44,-0.3,9.02,-14.84,4.91,-2.26
-1.39,-0.64,9.1,-13.74,5.04,4.32
-1.27,-0.51,8.81,-11.61,4.43,5.12
0.41,5.44,5.94,-19.9,1.13,11.15
-2.08,-0.6,8.61,-4.05,6.5,0.05
-1.46,-0.5,8.8,-3.25,12.78,-1.41
-1.44,-0.7,8.69,1.44,11.32,1.34
-1.46,-0.51,8.66,2.35,10.46,2.19
-1.63,-0.51,8.91,2.54,7.29,2.01
-1.69,-0.51,9.13,-0.94,3.33,1.46
-1.5,-0.45,8.95,-1.85,5.58,0.85
-1.39,-0.46,9.13,-1.06,8.94,2.62
-1.6,-0.49,9.11,-2.52,9.61,3.53
-1.7,-0.57,9.16,-3.32,6.86,2.55
-1.7,-0.56,9.19,-5.94,5.4,0.3
-1.61,-0.38,9.43,-7.58,7.05,-2.14
-1.5,-0.39,9.65,-9.35,10.4,-2.63
-1.55,-0.45,9.87,-13.62,10.28,-2.45
-1.49,-0.23,10.23,-17.95,9.3,0.18
-1.5,-0.37,10.56,-22.58,8.94,0.12
-1.63,-0.51,10.64,-26.12,9.79,-1.29
-1.65,-0.62,10.74,-28.74,11.01,-3.42
-1.64,-0.64,10.96,-30.33,14.79,-4.52
-1.59,-0.39,11.78,-37.34,15.46,-2.93
-1.6,-0.51,11.69,-46.79,14.12,-0.68
-1.71,-0.64,11.82,-56.3,8.02,2.8
-1.58,-1.1,11.47,-64.23,7.35,3.47
-1.51,-1.24,10.9,-66.91,11.62,3.41
-1.66,-1.36,11.38,-64.17,13.51,4.63
-1.87,-1.07,11.54,-73.5,9.73,5.97
-1.84,-1.24,11.19,-83.19,4.3,6.09
-1.58,-1.75,10.49,-91.06,11.25,5.24
-1.47,-1.99,10.17,-95.21,16.07,8.47
-1.43,-2.17,9.8,-102.4,20.52,10.66
-1.61,-2.3,9.92,-106,23.57,10.6
-1.65,-2.4,9.89,-110.39,25.71,9.45
-1.57,-2.39,9.87,-114.66,36.13,6.95
-1.64,-2.68,9.12,-121.42,41.07,7.13
-1.76,-2.92,8.71,-124.84,41.62,5.79
-1.62,-3.01,8.16,-129.72,46.25,6.27
-1.57,-3.27,7.82,-133.8,56.32,6.58
-1.56,-3.72,7.14,-136.85,63.88,7.74
-1.92,-4.09,6.21,-138.07,55.95,6.15
-2.01,-4.34,5.63,-138.5,45.52,4.75
-1.93,-4.61,5.17,-137.95,42.84,4.63
-1.81,-4.95,4.15,-134.35,47.35,4.93
-2.03,-5.13,4.02,-128.19,48.21,6.88
-2.5,-5.44,3.67,-125.88,43.21,6.27
-2.52,-5.57,3.41,-125.57,34,6.7
-2.42,-6.17,2.82,-118.62,25.95,5.6
-2.45,-6.31,2.68,-111.12,17.84,6.7
-2.37,-6.52,2.66,-104.78,20.4,8.41
-2.39,-6.67,2.78,-101.3,34,6.21
-2.67,-6.79,2.94,-98.74,42.47,8.04
-3.01,-7.07,2.6,-99.78,40.46,7.25
-3.18,-7.48,1.66,-96.18,40.4,1.7
-3.03,-7.82,1.18,-88.99,40.16,-1.1
-3.05,-7.92,1.08,-81.18,38.94,-0.49
-3.15,-7.86,1.07,-76.67,37.11,3.35
-3.3,-7.86,0.79,-76.49,31.99,4.26
-3.12,-8.48,0.3,-70.51,29.67,5.54
-3.27,-8.29,-0.15,-67.71,23.14,2.43
-3.32,-8.48,-0.33,-58.8,19.06,-1.41
-3.11,-8.7,-0.64,-53.07,18.82,-1.29
-3.09,-8.73,-0.28,-45.82,20.22,4.57
-3.4,-8.61,-0.51,-42.1,20.16,5.18
-3.55,-8.77,-0.62,-38.13,19.24,3.53
-3.46,-8.86,-0.95,-33.56,13.27,3.9
-3.34,-8.99,-1.32,-26.73,10.65,2.92
-3.1,-9.22,-1.37,-18.01,6.32,5.36
-3.12,-9.21,-1.26,-9.11,6.44,8.16
-3.32,-9.21,-1.36,-3.38,10.16,9.14
-3.54,-9.09,-1.13,3.15,11.56,9.32
-3.53,-9.09,-0.93,5.53,7.84,9.14
-3.46,-9.23,-0.95,11.75,6.62,10.85
-3.52,-8.93,-0.89,18.27,8.51,8.41
-3.44,-8.81,-0.87,20.34,11.93,6.88
-3.14,-8.77,-1,25.22,19.79,6.76
-3.17,-8.96,-0.94,30.83,27.66,8.53
-3.66,-8.92,-0.56,38.03,24.79,13.04
-4.07,-8.85,-0.45,43.03,13.82,12.62
-4.31,-8.7,-0.22,48.09,-0.27,10.48
-4.08,-8.72,0.15,53.09,-3.93,9.38
-4.26,-8.56,0.38,56.56,-1,6.95
-4.11,-8.58,0.28,58.51,-2.04,3.16
-3.97,-8.59,0.24,62.84,-11.18,3.96
-4.03,-8.67,0.1,68.76,-24.84,5.54
-4.01,-8.27,0.8,73.7,-36.92,7.8
-4.11,-7.87,1.26,74.85,-35.27,1.03
-3.72,-7.91,1.39,74.85,-20.27,-5.25
-3.56,-7.7,1.51,76.38,-12.04,-6.59
-3.64,-7.7,1.74,82.42,-20.27,-1.71
-3.48,-7.65,2.05,89.06,-30.7,1.34
-3.24,-7.28,2.31,90.04,-30.45,0.12
-2.94,-7.02,2.85,91.07,-17.16,-4.4
-2.67,-6.67,3.57,90.4,4.91,-8.18
-2.71,-6.73,4.08,89.18,24.12,-6.53
-3.48,-6.55,4.64,90.46,7.84,1.15
-3.49,-6.59,4.4,89.24,-26.98,6.58
-3.03,-6.4,3.95,82.84,-38.74,2.68
-2.18,-6.32,3.64,82.54,-11.61,-2.14
-2.65,-6.3,3.87,87.96,1.74,1.76
-3.73,-6.19,4.2,93.39,-40.27,6.88
-3.11,-5.94,4.65,103.27,-68.01,7.98
-1.85,-5.45,5.52,104.43,-28.32,3.29
-1.92,-4.87,6.24,93.02,28.69,2.74
-3.61,-4.66,6.56,81.99,12.9,8.1
-4.24,-5.18,5.6,77.66,-59.78,11.09
-2.37,-5.44,4.5,92.17,-78.38,5.66
-0.42,-4.62,5.7,106.56,7.66,2.25
-1.67,-3.78,7.42,97.35,65.52,8.23
-3.77,-3.86,7.43,83.27,19,14.38
-3.64,-3.85,6.47,82.17,-50.09,7.13
-1.32,-3.93,6.86,98.45,-23.74,4.51
-0.59,-3.07,8.76,94.18,46.86,14.14
-2.38,-2.93,8.9,77.72,63.57,23.9
-3.96,-3.43,7.59,77.17,11.93,26.76
-3.87,-3.69,6.83,91.99,-40.51,15.05
-2.17,-2.71,8.32,99.61,-17.16,10.54
-2.12,-2.34,8.95,88.88,28.21,16.88
-3.38,-2.65,8.71,81.5,33.57,23.59
-4.61,-2.84,7.71,84.67,-16,22.62
-4.6,-2.89,6.9,103.76,-70.33,14.32
-2.45,-1.41,8.75,111.01,-36.43,6.46
-2.19,-1.05,10.22,97.96,19.24,10.73
-3.78,-0.94,10.97,82.96,6.32,14.87
-4.2,-1.11,10.33,80.16,-49.9,12.25
-2.79,-0.91,10.84,84.31,-54.9,7.01
-1.89,-0.08,12.45,71.5,-9.9,6.15
-2.35,-0.33,12.55,54.55,16.13,5.97
-3.08,-0.55,12.14,46.13,-4.42,7.13
-3.4,-0.6,8.48,-5.02,9,-5.49
-2.77,-0.92,8.75,-3.13,6.07,-3.54
-2.58,-0.5,8.57,-6.12,2.23,-2.32
-2.52,-0.73,8.53,-7.52,4.61,-4.52
-2.29,-0.73,8.64,-10.51,9.61,-3.73
-2.26,-0.77,8.73,-16.18,12.05,-0.49
-2.42,-0.78,8.73,-16.43,6.62,2.13
-2.75,-0.82,9.03,-16.18,-2.77,-2.38
-2.52,-0.92,8.79,-15.63,-9.78,-7.38
-2.46,-0.75,8.94,-10.02,-5.27,-10.31
-1.59,0.08,8.44,-5.88,1.99,0.91
-1.98,-0.59,9.3,-17.83,-2.04,2.43
-2.43,-1.05,9.58,-17.22,-1.73,3.84
-2.33,-1.02,9.64,-18.19,5.65,1.7
-2.47,-1.09,9.86,-17.71,7.78,-1.1
-2.51,-1.07,9.85,-19.05,3.63,-4.15
-2.53,-0.99,10.03,-19.96,0.65,-5.98
-2.33,-0.96,10.3,-26.61,0.4,-5.37
-2.36,-1.06,10.85,-31.91,1.25,-3.12
-2.19,-1.27,11,-40.88,4.67,-1.84
-2.34,-1.17,10.99,-47.46,11.01,-1.1
-2.44,-1.43,10.87,-57.34,14.3,-2.02
-2.44,-1.57,10.63,-64.11,9.12,-2.14
-2.48,-1.62,11.1,-67.95,6.19,-1.9
-2.61,-1.45,11.93,-78.13,-0.7,-0.74
-2.45,-1.5,11.89,-88.19,3.27,-2.32
-2.25,-1.79,11.6,-97.46,14,-2.69
-1.98,-2.29,10.78,-106.55,27.78,-1.77
-2.28,-2.26,10.43,-112.4,32.35,-0.92
-2.42,-2.46,10.35,-120.33,29.24,-1.29
-2.08,-2.93,9.53,-125.08,27.78,-0.92
-2.13,-2.84,9.73,-125.2,28.88,1.21
-2.05,-3.23,8.79,-130.88,41.56,0.54
-2.22,-3.43,8,-132.95,46.5,0.73
-2.18,-3.82,7.54,-131.24,47.78,0.79
-2.04,-4.22,6.56,-128.01,52.11,-0.86
-2.03,-4.41,6.1,-128.86,56.44,-3.05
-2.31,-4.42,5.58,-131.12,55.28,-0.19
-2.32,-4.82,4.95,-122.58,59.91,-0.01
-2.63,-4.75,4.76,-122.64,63.21,0.24
-2.89,-5.3,4.17,-121.73,54.24,0.66
-2.76,-5.64,3.48,-120.02,42.11,-0.43
-2.61,-5.89,3.2,-114.17,38.33,-2.81
-2.38,-6.17,3.26,-105.57,49.55,-1.23
-2.75,-6.17,3.03,-104.53,56.68,-0.25
-3.03,-6.18,2.81,-105.08,55.46,-2.51
-3.12,-6.68,2.48,-104.17,39.43,-4.46
-3,-6.81,2.48,-98.74,31.93,-3.6
-2.93,-6.97,2.67,-96.67,31.5,-2.2
-2.94,-7.18,2.12,-95.14,37.96,-2.51
-3.23,-7.4,2.07,-94.53,38.63,-4.15
-3.25,-7.64,1.59,-93.44,35.16,-5.25
-3.36,-7.61,1.21,-92.83,28.94,-4.95
-3.08,-7.7,0.42,-92.64,30.1,-4.46
-3.42,-8.04,-0.69,-91.12,29.85,-6.04
-3.22,-8.24,-1.19,-82.03,30.04,-7.45
-3.13,-8.24,-1.87,-73.13,20.46,-5.92
-2.99,-8.74,-2.26,-62.16,6.38,-1.65
-3.03,-8.74,-2.45,-49.17,-1.12,2.55
-3.42,-8.79,-2.59,-42.34,-4.54,3.23
-3.51,-8.84,-2.66,-33.01,-5.03,1.95
-3.14,-9.06,-2.97,-23.01,-0.76,2.8
-3.01,-9.34,-3.01,-10.45,7.29,4.93
-3.21,-9.16,-2.8,0.59,12.41,7.92
-3.7,-9.09,-2.58,9,9.79,9.32
-4.12,-9.11,-2.66,18.94,-0.39,8.29
-4.22,-8.95,-2.41,29.12,-15.45,3.47
-3.66,-8.94,-2.28,37.9,-20.39,-1.16
-3.12,-9.1,-2.07,48.21,-14.29,-0.07
-3.13,-8.93,-1.61,57.17,-4.72,4.08
-3.56,-8.77,-0.9,63.45,-1.79,8.84
-4.09,-8.6,-0.25,68.94,-8.14,7.13
-4.24,-8.25,0.04,68.27,-19.48,0.73
-3.67,-8.47,-0.4,67.96,-29.48,-4.27
-3.37,-8.52,-0.54,76.87,-33.5,-3.6
-3.25,-8.34,-0.31,85.04,-36.12,-3.3
-3.14,-8.27,0.32,95.22,-32.83,-0.31
-3.55,-7.59,1.37,99.37,-34.72,-3.12
-3.51,-7.21,1.35,92.11,-43.56,-5.13
-3.21,-7.65,1.09,97.41,-52.77,-7.14
-2.76,-7.13,1.33,102.48,-49.23,-7.75
-2.47,-7.19,1.76,108.09,-39.54,-4.7
-2.86,-6.91,2.2,111.44,-56.55,1.7
-3.44,-6.46,2.07,113.57,-104.48,6.03
-2.63,-6.01,2.19,123.7,-125.88,-1.77
-1.02,-5.32,3.86,129.18,-68.87,-13.97
-0.6,-4.88,5.49,121.56,-2.89,-9.15
-1.94,-5.42,5.39,112.11,-4.84,-0.31
-2.72,-5.57,3.84,112.48,-71.79,5.85
-0.64,-5.55,2.76,135.1,-83.81,-3.97
1.03,-4.16,4.49,151.5,12.11,-6.1
-0.88,-2.54,6.87,129.55,70.03,-7.93
-2.82,-3.25,6.47,109.12,13.88,-3.97
-3.15,-3.8,4.75,108.39,-86.37,-2.14
-0.37,-3.95,3.73,138.94,-98.26,-12.57
1.63,-2.33,6.32,159.67,17.29,-12.75
-0.43,-0.52,9.32,132.84,74.79,0.3
-3,-1.16,9.2,108.39,2.35,4.93
-3.85,-2.24,7.43,113.88,-130.21,2.31
0.25,-1.8,7.51,158.51,-128.32,-25.43
3.08,-0.32,11.05,166.56,24.24,-14.82
-0.09,0.41,13.89,128.02,66.25,10.91
-2.28,-0.81,12.17,113.94,-12.83,11.09
-2.51,-1.29,11.03,121.44,-122.22,6.64
0.94,-0.91,11.69,130.28,-85.21,-16.9
2.19,0.86,14.51,116.68,51.99,-7.75
-0.11,0.26,15.07,82.17,97.23,9.26
-1.77,-0.57,13.16,68.76,59.79,12.19
-2.56,-0.54,12.01,66.99,-7.77,9.45
-1.71,-0.37,11.98,63.39,-38.81,4.75
-0.72,0.17,13.09,49.24,-0.21,-0.49
-0.73,0,13.24,31.5,42.29,5.73
-1.95,-0.25,12.48,21.38,35.89,8.9
-2.37,-0.16,11.56,17.42,4.06,5.48
-1.91,-0.24,11.06,14.37,-5.33,1.27
-1.31,-0.31,10.94,11.07,13.33,-0.98
-1.44,-0.37,10.68,5.89,29.85,-0.13
-1.84,-0.39,10.03,3.82,29.55,1.58
-2.34,-0.19,9.74,2.29,5.16,-0.98
-1.74,-0.25,9.42,-0.08,-6.61,-4.58
-1.01,-0.19,9.51,-1.18,4.43,-4.76
-0.94,-0.14,9.67,-1.73,23.27,-3.24
-0.99,-0.16,9.06,-4.11,27.17,1.27
-1.39,-0.24,8.97,-3.8,18.27,1.82
-1.27,-0.24,8.56,-2.16,9.3,-0.25
-1.19,-0.12,8.55,-1.55,6.93,-0.68
-1.05,-0.13,8.7,-3.32,11.32,0.91
-1.14,-0.19,8.39,-2.16,19.91,-0.13
-1.24,-0.05,8.51,-1.43,18.33,1.27
-1.31,-0.23,8.32,0.59,9.85,3.04
-1.33,-0.09,8.35,2.78,4.97,1.4
-1.34,-0.18,8.58,3.21,6.68,0.79
-1.21,-0.14,8.69,0.53,8.94,0.18
-1.31,0.06,8.79,0.83,14.97,-2.08
-1.31,-0.18,8.82,-0.08,16.13,-0.92
-1.42,-0.21,8.88,0.95,10.04,0.97
-1.45,-0.09,8.91,2.78,6.38,1.46
-1.41,-0.17,8.95,1.44,3.39,1.27
-1.51,-0.27,9.09,1.5,3.15,0.73
-1.39,-0.21,8.97,1.14,8.51,-0.13
-0.26,-0.25,6.84,12.78,10.4,-9.34
-2.07,-0.4,8.91,6.81,10.58,-1.84
-1.77,-0.21,8.76,1.56,13.63,0.12
-1.74,-0.2,9.07,-3.25,12.05,1.88
-1.78,-0.37,8.95,-7.16,8.69,3.77
-1.87,-0.33,8.94,-9.96,7.96,2.74
-1.86,-0.38,9.02,-15.08,7.9,4.08
-1.82,-0.48,9.04,-15.75,8.88,2.55
-2.07,-0.59,9.28,-16,4.85,-6.1
-1.94,-0.45,9.1,-14.35,2.17,-9.09
-1.74,-0.45,9.05,-11.61,4.43,-4.46
-1.56,-0.53,8.71,19.61,13.69,2.68
-1.16,-1.62,9.1,-0.88,8.82,-3.66
-1.94,-0.57,9.45,-6.73,10.4,-1.04
-2.02,-0.66,9.36,-11.61,9.43,-3.18
-1.91,-0.73,9.54,-16.79,13.57,-3.73
-2.1,-0.74,9.49,-17.58,12.84,-5.8
-2.14,-0.75,9.98,-16.85,5.58,-3.66
-2.11,-0.89,10.22,-18.86,6.99,-3.48
-2.18,-0.74,10.8,-23.25,10.04,-2.32
-2.23,-0.55,11.44,-32.95,11.86,-2.32
-2.23,-0.8,11.71,-43.99,9.79,-2.26
-2.13,-0.72,11.95,-54.23,11.19,-3.85
-1.9,-1,11.85,-63.62,17.47,-4.21
-2.11,-0.99,12.09,-73.62,18.88,-4.21
-2.02,-1.08,12.23,-82.1,24.3,-7.32
-1.7,-1.33,12.24,-90.81,35.4,-6.53
-1.83,-1.57,11.98,-99.23,46.19,-3.48
-2.12,-1.47,11.49,-110.02,41.19,-0.68
-2.28,-1.83,10.73,-117.34,33.69,-2.08
-2.05,-2.29,10.05,-117.46,30.95,-2.02
-2.16,-2.35,9.71,-120.63,31.99,-3.36
-2.31,-2.56,9.61,-119.53,38.27,-4.15
-2.36,-2.89,8.93,-122.34,43.14,-4.76
-2.65,-3.24,7.85,-123.74,35.04,-6.9
-2.3,-3.87,7.01,-114.47,27.29,-4.4
-2.14,-4.14,6.41,-107.03,29.85,-3.91
-2.02,-4.03,6.62,-98.86,40.28,-3.66
-2.39,-4.1,7,-97.1,45.58,-2.63
-2.42,-4.26,6.68,-98.25,47.78,-3.36
-2.51,-4.47,6.28,-98.56,54.06,-3.97
-2.48,-5.01,5.71,-104.9,52.72,-3.85
-2.54,-5.14,5.02,-105.14,46.25,-0.19
-2.69,-5.36,4.94,-98.86,45.77,-1.65
-2.55,-5.28,4.57,-104.17,46.07,1.21
-2.73,-5.4,4.66,-104.29,52.96,3.59
-2.92,-5.78,4.55,-104.84,62.66,2.55
-3.29,-5.97,3.96,-105.45,60.52,-1.23
-3.26,-5.83,4.11,-107.83,59.3,-6.53
-3.06,-6.03,3.71,-110.81,57.47,-8.3
-3.14,-6.04,3.91,-108.92,50.4,-6.96
-3.19,-6.32,3.31,-115.2,51.38,-7.51
-3.2,-6.51,2.68,-116.97,53.69,-8.66
-3.28,-6.49,2.31,-119.11,53.08,-10.68
-3.2,-7.01,1.17,-116.55,50.22,-10.19
-3.24,-7.33,0.43,-111.49,45.64,-12.14
-3.17,-7.31,-0.46,-109.53,32.9,-14.64
-3.16,-7.99,-0.97,-98.25,19.3,-13.91
-2.9,-7.84,-1.92,-94.35,4.43,-12.81
-2.7,-8.18,-2.91,-84.78,4.79,-7.08
-2.43,-8.7,-3.37,-64.66,15.58,-3.3
-2.51,-8.87,-4.15,-50.02,28.08,-2.38
-2.73,-9.24,-4,-31.18,30.4,-0.19
-2.92,-9.04,-3.7,-15.21,22.66,1.95
-3.09,-9.04,-3.32,-2.77,9.24,7.37
-3.46,-9.13,-3.11,7.9,-9.23,13.04
-3.56,-9.18,-3.1,22.72,-14.11,14.69
-3.8,-8.88,-2.55,31.74,-10.7,11.46
-4.1,-8.87,-2.25,38.27,-5.88,9.32
-4.27,-8.9,-2.31,44.31,-4.05,3.59
-4.35,-8.89,-2.18,50.89,-14.29,0.91
-4.2,-8.98,-2.24,60.16,-31.18,-2.87
-3.77,-8.81,-1.96,71.56,-40.88,-3.48
-3.57,-8.42,-1.42,81.07,-39.72,-5.92
-3.42,-8.17,-0.89,84.31,-38.44,-9.15
-3.08,-8.03,-0.8,90.77,-39.17,-10.8
-2.77,-7.96,-0.63,97.23,-45.03,-10.55
-2.65,-7.72,0.17,107.6,-52.4,-3.79
-2.67,-7.51,1.18,115.65,-52.59,1.09
-2.94,-6.72,2.31,119.18,-41.49,-1.71
-3.18,-6.31,2.51,110.46,-39.17,-7.32
-2.98,-6.69,2.04,107.6,-54.78,-10.62
-2.18,-6.68,1.95,106.13,-62.52,-9.34
-1.59,-6.79,3.27,129.18,-51.24,3.23
-2.34,-5.78,5.02,128.76,-41.37,2.92
-2.34,-5.18,5.37,119.12,-21.49,-5.19
-2.49,-5.03,5.48,99.43,-23.2,-10.92
-2.52,-5.64,4.26,83.57,-44.23,-17.32
-1.36,-5.89,2.85,94.73,-48.81,-23.36
-0.23,-5.58,3.7,121.74,-4.23,-16.65
-1.15,-4.55,5.67,126.01,12.23,-3.79
-2.88,-3.67,6.88,113.21,-41.12,-1.16
-2.24,-3.7,6.43,93.33,-86.43,-9.15
-0.64,-4.19,6.4,99.91,-64.6,-17.63
0.44,-3.85,6.99,111.38,2.35,-17.75
-0.29,-3.68,7.99,119,36.07,-5.31
-1.87,-3.3,8.07,114.79,3.88,3.04
-2.87,-2.85,8.44,108.21,-63.38,-2.75
-0.65,-3.19,8.07,110.83,-51.37,-18.6
0.67,-3.07,9.42,119.55,26.8,-11.65
-0.91,-2.86,10.04,113.39,58.63,3.23
-2.69,-2.86,9.3,109.06,13.39,9.57
-3.23,-2.4,9.26,105.04,-59.05,-1.1
-0.64,-2.07,9.78,108.57,-45.7,-10.19
