aX,aY,aZ,gX,gY,gZ
-0.61,-1.04,8.77,-4.47,33.05,-7.41
-0.86,-1.36,9,-1.91,30.24,-5.58
-0.68,-1.33,8.96,-3.92,32.44,3.14
-0.87,-1.52,8.87,-5.87,33.11,6.25
-1.16,-1.56,8.91,-5.38,32.44,4.18
-1.29,-1.4,8.76,-5.75,30.79,-0.15
-1.1,-1.46,8.92,-6.24,29.94,-2.71
-1.21,-1.66,8.93,-5.69,27.99,-5.34
-1.31,-1.7,8.99,-6.6,23.6,-11.62
-1.15,-1.28,8.49,-6.24,21.28,-16.56
-0.76,-1.21,8.99,-7.33,23.23,-2.17
-1.08,-0.87,9.09,-12.03,23.66,1.49
-1.15,-1.14,8.97,-14.1,24.82,2.71
-0.11,-1.06,10.45,-11.97,34.69,8.08
-0.75,-1.38,8.18,-6.85,27.13,-0.82
-0.88,-1.91,8.95,0.84,26.34,-2.29
-1,-1.3,8.81,5.04,28.29,2.71
-1.28,-1.08,9.01,1.75,25.85,-2.84
-1.06,-1.34,8.84,0.29,26.52,-7.17
-0.95,-1.43,8.76,3.52,32.38,-6.13
-1.12,-1.39,8.66,3.7,27.74,-5.15
-1.08,-1.37,8.86,5.1,25.55,-4.85
-1.14,-1.17,8.85,3.34,27.38,-7.9
-0.96,-1.2,9.05,-1.05,28.84,-8.14
-0.95,-1.12,9.04,-0.75,27.44,-8.51
-0.75,-1.37,9.05,-2.7,25.24,-5.15
-0.85,-1.4,9.05,-3.07,26.28,-4.06
-0.95,-1.48,8.94,-5.81,28.29,-5.95
-0.89,-1.87,8.93,-5.75,28.9,-6.74
-0.84,-1.93,9.28,-5.14,26.04,-3.57
-0.76,-2.17,9.36,-5.02,26.22,2.1
-1.24,-2.76,9.58,-7.33,24.82,3.02
-1.24,-2.79,9.88,-11.24,21.83,2.04
-1.19,-3.01,9.86,-14.53,28.11,1.49
-1.42,-3.19,10.16,-22.7,35.06,-0.28
-1.6,-3.87,9.61,-27.52,38.47,-2.53
-1.62,-4.28,9.45,-31.97,41.28,-3.63
-1.9,-4.42,9.55,-35.99,42.74,-4.73
-1.95,-4.37,9.51,-39.83,43.17,-2.1
-2.17,-4.45,9.69,-40.57,39.02,-2.96
-2.2,-4.76,9.45,-44.16,34.94,-10.64
-1.77,-5.1,9.37,-45.63,26.52,-13.32
-1.2,-5.25,9.18,-44.77,25.24,-10.21
-1.13,-5.36,8.85,-40.44,36.95,-8.69
-1.01,-5.62,8.41,-36.11,55.06,-1.92
-2.32,-5.36,8.08,-31.36,57.93,-7.04
-2.47,-4.5,8.2,-30.87,38.78,-18.51
-1.58,-4.46,8.2,-35.14,37.56,-22.59
-0.78,-4.22,7.73,-42.82,55.18,-17.59
-0.89,-4.32,7.23,-50.44,72.8,-9.91
-1.51,-4.07,6.77,-50.57,62.5,-1.31
-2.05,-3.52,6.7,-40.32,18.41,-5.89
-1.14,-2.85,7.3,-22.33,-5.67,-11.62
-0.18,-2.57,7.83,-15.63,28.05,-17.53
0.26,-2.42,7.82,-18.37,81.89,-18.39
-0.39,-2.45,6.56,-12.76,119.02,-7.04
-1.6,-1.95,5.65,0.84,100.36,9.05
-2.68,-0.75,6.07,15.35,22.07,16.25
-1.87,0.38,7.48,27.12,-6.28,-0.4
0.02,0.76,8.91,29.92,71.28,-9.97
-0.42,0.65,8.86,19.74,133.66,1.55
-2.35,0.69,7.38,17.6,124.51,13.99
-3.34,0.73,6.18,37.97,65.18,23.44
-1,-1.28,7.6,62.18,41.1,16.31
-2.23,0.52,7.66,52.24,42.38,14.11
-2.69,0.53,8.62,55.47,83.05,17.41
-3.69,0.8,9,56.69,79.27,26.86
-4.55,0.8,7.99,60.04,39.39,19.91
-2.82,0.68,8.25,55.78,20.85,10.94
-1.68,0.62,9.28,52.67,35.85,15.88
-2.34,0.82,10.66,47.91,35.49,7.35
-2.39,1.3,11.8,21.81,-7.07,-19.48
-1.16,0.08,11.52,1.75,-39.82,-29.54
0.06,-0.06,9.63,-5.14,-10.67,-17.96
-0.38,0.44,8.89,-11.24,39.57,5.58
-2.01,0.11,8.94,-13.61,54.82,20.64
-3.62,0.02,8.6,-9.22,46.22,12.1
-4.13,0.09,8.25,-5.75,25.55,-4.54
-3.79,-0.13,8,-2.64,18.66,-12.78
-3.31,-0.14,8.39,-1.11,14.75,-8.32
-3.05,-0.17,8.84,-7.33,23.78,-5.15
-2.87,-0.06,9.74,-13.92,28.35,0.7
-3.13,-0.2,9.67,-21.11,28.23,-1.74
-3.3,-0.52,9.19,-19.16,32.44,-4.6
-3.65,-0.12,8.75,-12.64,34.02,-5.82
-3.57,0.47,8.53,-9.04,36.46,-12.04
-3.02,0.34,8.48,-6.11,32.07,-16.01
-2.4,0.31,9.11,-12.52,26.04,-12.71
-2.86,0.84,10.41,-36.11,8.47,-8.69
-2.51,0.72,9.33,-44.71,5.18,-14.12
-1.82,0.85,8.8,-38.61,16.95,-19.67
-1.36,1.06,8.46,-18.86,29.57,-23.51
-1.01,1.02,8.01,0.17,58.9,-23.99
-1.17,2.9,10.27,-37.64,72.07,-2.78
-2.06,2.16,10.8,-81.48,53.66,19.72
-3.77,2.11,9.21,-84.1,28.35,17.1
-3.82,2.17,8.61,-56.85,26.46,-8.87
-2.28,1.22,7.91,-17.64,53.53,-32.84
-1.26,1.16,7.88,7.18,71.77,-26.86
-3.06,1.35,8.8,2.67,36.46,-1.56
-4.35,1.89,8.18,-8.8,-23.05,8.87
-3.45,1.56,8.48,-5.26,-28.9,-6.56
-1.75,1.64,9.03,-7.76,-3.96,-14.3
-1.3,0.98,9.62,-20.87,4.51,1.74
-3.28,-0.14,8.94,-38.92,-21.4,30.82
-4.83,-0.09,8.61,-29.35,-47.13,25.21
-3.56,-0.78,8,-30.02,-40.43,-0.34
-0.12,-2.12,7.26,-30.5,-4.45,0.52
-0.03,-2.47,8.04,-21.11,9.63,35.58
-2.49,-2.86,6.52,-18.25,-13.78,54.11
-4.52,-2.07,6.83,-7.15,-50.92,51.8
-3.69,-4.41,5.86,-14.89,-32.99,25.82
-1.91,-5.04,6.73,-6.54,-26.65,14.05
-0.55,-6.94,6.14,-13.43,-25.55,15.88
-0.79,-6.68,5.96,1.87,-29.82,31.61
-1.66,-5.8,7.27,21.81,-40.73,27.71
-1.57,-4.53,8.06,29.92,-24.15,14.18
-1.1,-4.06,8.78,25.78,-4.21,2.53
-0.47,-4.45,9,26.45,-0.18,-3.93
-0.34,-4.62,9.14,26.32,-2.87,3.57
-1.16,-4.11,10.28,30.59,-7.38,3.93
-1.11,-3.92,10.54,21.39,-0.25,-11.74
-0.4,-3.56,10.49,7.85,10.85,-11.43
-0.12,-4.07,9.77,2.91,30.18,-9.97
-0.54,-3.58,9.55,3.82,46.64,-3.32
-1.21,-3.57,9.52,-3.92,39.45,-7.78
-1.17,-4.28,9.02,-7.52,37.19,-8.69
-1.25,-4.5,8.99,-0.26,38.72,-10.03
-1.4,-4.11,8.81,-3.74,40.73,-8.63
-1.55,-4.21,8.46,-0.63,38.53,-3.32
-1.57,-3.97,8.14,4.37,42.8,-5.58
-1.56,-3.17,9.29,8.82,32.44,-4.79
-1.08,-2.99,9.09,-3.07,32.25,-8.51
-0.5,-2.92,8.44,-8.43,41.77,-5.58
-0.18,-2.79,8.2,-9.77,52.68,-0.4
-0.44,-2.57,8.23,-7.46,53.23,10.27
-1.84,-0.15,-0.15,-4.35,46.89,17.1
-2.06,-2.56,7.89,3.95,26.46,11.61
-1.85,-2.12,8.22,5.29,10.85,-0.15
-1.02,-1.98,8.76,-1.11,17.13,-7.1
-2.77,-1.2,8.75,1.51,34.63,-11.01
-1.62,-1.44,9.24,-2.76,33.66,-2.23
-1.43,-1.45,8.97,-6.72,30.79,-1.8
-1.42,-1.43,8.92,-9.65,29.33,-3.63
-1.32,-1.48,8.92,-11.24,30,-6.13
-1.48,-1.63,8.6,-12.33,29.08,-10.58
-1.21,-1.98,8.58,-4.53,29.08,-10.4
-1.08,-1.51,8.58,-3.43,26.95,-6.07
-1.39,-0.91,8.85,-5.63,23.47,4.24
-1.65,-1.19,8.82,-7.09,22.93,0.03
-5.35,9.08,9.71,-109.71,19.39,-17.17
-1.67,-1.62,8.83,-9.41,24.02,-7.23
-1.31,-1.87,9.21,-7.33,28.66,-7.35
-1.15,-2.02,8.68,-0.08,31.52,-6.07
-1.23,-2.14,9.05,3.4,31.64,-2.04
-1.33,-2.07,8.98,2.54,29.08,-2.1
-1.17,-2.45,8.87,-1.24,27.32,1.55
-1.63,-2.77,8.97,-5.44,33.84,0.15
-2.31,-3.43,9.13,-10.2,36.16,-3.57
-2.23,-4.34,9.15,-13.61,30.91,-6.13
-1.99,-4.64,9.56,-18.8,27.32,-3.81
-1.86,-4.76,9.69,-27.15,33.54,0.09
-2.53,-5.15,9.36,-38,57.86,-2.47
-3.48,-5.53,9.08,-48.68,72.92,-9.67
-3.65,-6.38,8.7,-59.28,69.39,-21.8
-3.01,-6.76,8.5,-63.13,60.18,-25.15
-2.59,-7.06,7.96,-61.42,59.02,-23.75
-2.46,-7.55,7.5,-55.2,69.14,-18.75
-3.06,-7.86,7,-48.19,60.73,-14.18
-3.6,-7.48,6.9,-40.02,43.6,-15.15
-3.53,-6.85,6.49,-37.09,32.38,-28.2
-2.38,-6.61,7.44,-35.69,51.46,-35.82
-1.7,-6.3,7.48,-40.75,58.96,-28.39
-1.84,-6.33,7.18,-33.74,60.79,-15.64
-2.78,-5.32,6.33,-18.31,51.95,-14.24
-3.57,-3.33,7.71,-14.59,41.58,-28.14
-2.9,-3.37,7.83,-18.68,23.78,-46.13
-1.28,-3.01,8.19,-1.97,-3.84,-30.52
-0.44,-2.13,8.41,11.14,-6.46,-12.9
-0.77,-0.64,8.87,14.37,45.36,-2.35
-1.87,0.68,8.65,8.46,90.36,-13.75
-2.22,0.75,7.68,9.62,86.03,-17.04
-1.6,0.49,7.22,18.34,43.29,-0.03
-2.29,-0.06,6.66,36.81,17.99,11
-3.01,2.12,6.91,45.78,37.44,-0.21
-3.44,3.8,7.52,50.78,58.17,-8.14
-1.74,2.8,8.65,51.38,50.73,-1.5
-1.6,2.03,8.44,74.01,39.02,23.26
-2.02,3.13,8.86,80.1,67.32,31.61
-3.36,3.31,8.78,67.48,112.31,23.26
-4,3.82,7.9,69.92,112.62,-4.24
-4.69,3.09,9.16,51.45,32.8,-2.59
-3.18,2.06,8.81,45.78,-23.54,6.98
-2.17,0.92,9.41,46.69,-14.03,-4.73
-1.99,0.36,11.47,41.32,-9.27,-30.09
-0.48,1.03,12.64,18.89,-30.24,-41.49
1.13,0.86,10.9,-7.21,-8.54,-11.56
0.05,0.38,8.81,-15.32,40.61,16.68
-2.03,-0.22,7.66,-10.81,61.89,18.87
-3.61,-0.28,7.62,-3.13,51.34,10.21
-4.09,-0.16,7.44,7,26.71,-4.3
-3.22,-0.42,7.64,14.8,16.64,-13.39
-2.27,0.6,9.21,1.08,15.55,0.4
-2.07,-0.43,9.57,-14.77,23.47,11.19
-2.4,-0.66,8.79,-9.59,46.4,13.2
-3.11,-0.84,8.47,-6.36,51.03,10.09
-3.63,-1.09,8.07,1.45,47.13,3.63
-4.03,-0.6,8.3,7.73,44.63,-1.68
-3.87,0.02,9,-7.4,36.04,-0.95
-3.42,-0.65,8.68,-12.88,23.96,3.08
-3.07,-0.97,8.56,-11.11,21.58,-0.03
-3.05,-0.79,8.76,-7.15,32.62,-0.82
-3.21,-0.71,8.54,-3.25,46.4,-4.79
-3.43,-0.33,8.49,-0.75,45.18,-9.42
-3.58,-0.31,8.91,-3.55,33.96,-13.2
-3.06,0.04,8.7,-7.33,28.23,-14.24
-2.67,0.25,8.9,-10.99,29.21,-9.3
-2.39,0.36,8.79,-12.03,33.6,-7.96
-2.72,0.66,8.97,-5.08,42.25,-13.02
-3.51,1.39,9.21,1.32,33.41,-27.65
-3.91,2.33,9.68,7.54,-0.61,-41.62
-2.82,3.69,9.18,0.17,-25.24,-49.67
-1.06,3.05,8.98,4.37,-9.03,-51.37
0.16,3.46,9.57,4.25,26.89,-34.67
-1.14,4.6,10.65,-9.53,35.18,-4.79
-3.04,6.28,10.99,-36.36,12.62,8.5
-2.73,5.13,10.13,-71.48,8.35,0.33
-1.51,3.96,8.75,-68.07,50.06,-3.02
-2.66,4.29,9.58,-61.11,62.13,3.99
-4.88,4.85,10.21,-72.09,-2.93,13.38
-4.2,3.79,9.77,-78.37,-64.57,10.52
-1.45,3.49,8.93,-77.27,-52.5,7.77
0.66,0.29,8.76,-86.85,-7.68,19.85
-1.35,-0.38,8.23,-85.69,0.06,52.59
-4.81,-0.63,8.16,-61.36,-16.65,47.89
-4.77,0.1,7.95,-58.8,-39.27,28.32
-2.09,0.34,8.26,-58.86,-44.33,22.22
0.18,-3.09,6.84,-68.67,-10.98,30.82
-1.06,-4.59,6.2,-50.08,-7.87,51.07
-3.29,-5.68,6.66,-40.08,-41.28,42.47
-3.17,-7.5,5.86,-25.63,-53.42,33.32
-2.46,-7.16,5.67,-12.7,-37.44,15.27
-1.13,-7.44,5.81,0.47,-30.43,8.26
-0.45,-6.31,7.83,14.74,-46.34,23.63
-0.1,-6.69,9.26,18.76,-29.21,25.15
-0.16,-6.65,9.29,10.1,-25.55,29.6
0.08,-6.72,9.24,5.96,-8.78,28.5
-0.35,-6.84,9.71,1.51,5.97,29.18
-0.94,-6.4,9.8,-11.79,22.38,30.52
-1.92,-6.81,8.57,-19.04,31.89,26.43
-2.39,-6.56,7.91,-32.58,27.38,22.41
-2.42,-7.67,5.89,-26.79,21.22,18.44
-2.5,-7.82,4.79,-21.42,17.07,18.02
-3.06,-7.51,4.43,-3.98,13.96,14.48
-3.62,-6.46,4.69,-3.19,19.21,6.37
-3.45,-6.64,4.08,5.41,30.73,-3.75
-3.43,-5.6,5.27,14.74,28.78,-6.19
-2.78,-4.33,7.67,27.3,18.41,-13.39
-1.27,-2.96,10.05,15.59,22.5,-20.64
0.06,-2.92,10.09,-0.2,27.38,-17.65
0.39,-3.12,10.05,-2.7,30.73,-10.64
0.11,-3.31,8.89,-8.74,28.9,-6.07
-0.05,-3.15,8.31,-6.66,29.57,-8.14
0.41,-3.09,7.8,-6.91,36.28,-11.43
0.74,-2.94,8.16,1.93,36.28,-3.45
0.57,-2.51,8.87,5.65,22.25,8.08
0.27,-2.44,8.61,7.91,6.52,17.35
-0.1,-2.28,8.6,8.09,12.86,10.82
-0.13,-2.05,8.9,3.15,31.95,1.55
-0.31,-2.36,8.8,-1.42,31.04,2.35
-0.47,-2.61,8.51,4.8,17.13,8.14
-0.28,-2.53,8.9,6.08,10.79,11.13
-0.35,-2.36,9.17,4.43,16.77,9.05
-0.4,-2.21,9.02,-2.88,28.78,0.76
-0.38,-2.42,8.87,-4.22,34.21,-3.26
-0.32,-2.49,8.8,-5.2,31.83,-3.75
-0.4,-2.36,8.83,-2.88,20.55,1.37
-0.39,-2.43,8.97,3.76,13.47,6.8
-0.37,-2.24,9.05,-0.14,23.84,1.61
-0.65,-2.23,8.92,-2.09,30.85,-6.37
1.15,-9.58,8.92,36.02,47.56,-2.96
-0.85,-2.47,8.85,2.85,33.11,-8.02
-0.84,-2.16,8.69,0.23,30.18,-10.46
-0.94,-2.18,8.77,-3,29.14,-11.8
-0.87,-2.33,8.76,-5.14,26.46,-11.07
-0.89,-2.35,8.97,-7.09,23.96,-11.19
-0.88,-2.42,8.96,-8.55,21.89,-12.35
-0.77,-2.29,8.68,-12.33,19.45,-15.34
-0.54,-2.12,8.65,-6.85,19.82,-9.97
-0.28,-1.96,8.55,-3.49,19.94,-1.92
-0.88,-2.14,8.96,-3.92,18.72,1.55
-0.77,-2.21,8.94,-6.24,20.3,-0.64
0.71,-1.54,9.63,-2.52,33.47,3.2
-0.29,-2.18,8.44,-5.32,30.06,-3.57
-0.61,-2.53,8.96,-2.88,26.22,-3.14
-0.81,-2.56,8.53,-1.72,26.4,-5.4
-0.66,-2.26,8.46,0.1,23.9,-4.3
-0.73,-2.68,8.49,1.39,26.4,-3.51
-0.76,-2.72,8.14,-0.02,28.35,-4.73
-0.54,-3.06,7.91,4.31,31.46,-4.12
-0.71,-3.51,8.13,7.12,28.47,-1.19
-0.93,-3.74,8.16,7.73,18.11,2.77
-0.92,-4.32,8.35,7.54,12.62,5.27
-1.27,-5.04,8.55,1.45,20.49,7.29
-2.11,-5.85,8.32,-9.04,34.14,2.65
-2.48,-7.14,7.81,-18.43,44.27,-5.76
-2.34,-8.1,7.54,-25.26,51.28,-8.63
-2.25,-8.86,7.1,-25.81,64.39,-11.5
-2.6,-8.94,7.37,-25.02,68.78,-8.87
-3.39,-9.3,7.56,-25.69,53.66,-8.32
-3.36,-9.47,7.48,-27.33,47.86,-17.47
-2.62,-9.24,7.64,-28.8,63.96,-26.01
-2.31,-8.84,7.92,-29.35,102.44,-28.2
-3.48,-8.57,8.05,-32.21,97.13,-25.52
-4.26,-7.76,7.95,-36.05,52.44,-23.75
-3.66,-6.58,7.78,-41.97,15,-25.28
-1.63,-5.17,8.28,-49.22,58.6,-46.37
-0.64,-4.48,8.7,-57.7,107.31,-39.18
-2.54,-4.02,7.73,-55.69,73.84,-5.58
-4.8,-2.47,7.06,-37.94,-32.44,10.4
-3.34,-1.76,5.81,-1.54,-70.67,-22.53
0.98,0.02,7.26,28.28,62.07,-70.82
1.83,1.45,9.18,30.53,223.23,-61.74
-1.54,1.58,8.35,28.7,214.94,-25.34
-3.61,3.06,5.82,58.88,69.39,-0.82
-3.13,4.56,5.93,76.81,-65.24,6.49
1.12,5.98,7.9,106.75,-27.14,-3.32
1.85,6.3,11.27,114.8,109.08,15.94
-1.86,6.08,12.43,99.68,125.12,28.87
-4.31,5.62,11.61,82.85,32.93,1.19
-1.22,6.29,10.41,60.78,-11.89,-12.35
1.42,3.16,8.96,44.68,33.05,-1.43
-0.91,2.18,10.64,36.02,43.53,19.54
-3.57,1.88,12.4,1.87,-29.15,-6.5
-1.41,2.26,11.28,-21.42,-80.49,-33.63
1.7,0.58,8.18,-28.49,-14.51,-11.86
-1.03,-2.34,7.79,4.74,78.78,28.26
-2.37,0.63,7.8,7.06,84.21,30.88
-4.43,0.05,7.9,11.93,57.68,15.46
-3.93,1.19,8.96,7.3,19.88,6.07
-3.13,0.28,9.17,-4.29,7.8,2.22
-2.45,-0.14,9.48,1.51,17.13,0.7
-2.09,-0.06,10.44,-0.57,36.16,5.64
-2.39,0.18,10.34,-3.43,50.97,11.55
-3.18,0.24,10.43,-9.83,45.12,11.13
-3.16,0.52,10.03,-10.63,46.46,1
-2.79,0.86,9.8,-5.93,54.27,-8.14
-3.01,0.75,10.12,12.24,51.22,-26.19
-2.8,1.6,10.25,25.53,34.75,-42.04
-1.86,2.57,10.13,33.46,18.17,-46.56
-0.57,3.51,10.31,40.47,8.9,-42.17
0.41,4.74,10.51,28.58,14.82,-24.67
-0.14,5.56,10.62,19.07,41.28,-2.78
-1.1,6.78,10.85,-3.31,73.41,-4.91
-1.86,8.16,10.48,-53.19,73.6,-12.23
-1.34,6.72,9.37,-78.74,51.95,-13.2
-0.91,5.45,8.93,-93.61,23.54,3.87
-1.18,4.84,7.98,-98.37,4.51,26.49
-1.37,3.14,7.54,-95.26,-3.78,26.13
-1.29,2.11,7.76,-86.72,-11.83,29.91
-0.65,2.86,8.05,-87.52,-21.83,45.21
-1.99,2.01,7.39,-88.92,-51.89,73.5
-2.68,0.5,7.42,-82.15,-63.9,65.58
-1.33,-2.61,6.62,-77.27,-35.73,54.78
-0.54,-3.66,7.08,-64.22,2.44,50.15
-1.33,-4.16,5.97,-55.2,0.97,58.14
-3.72,-4.97,7.02,-35.69,-12.81,73.87
-5.71,-5.78,6.08,-31.72,10.73,56.13
-6.49,-6.61,5.57,-14.89,18.72,24.54
-5.12,-6.83,6.26,-5.02,-11.22,10.46
-2.9,-7.97,6.1,4.62,-44.39,18.81
-1.78,-7.75,6.99,17.06,-57.87,33.14
-2.48,-6.91,8.59,27.06,-39.7,27.47
-2.55,-5.96,7.92,24.49,-10.31,13.32
-2.8,-7.17,8.41,35.29,6.95,4.54
-2.4,-6.55,8.55,30.29,-9.64,10.27
-1.69,-6.3,8.71,26.32,-16.95,18.5
-1.48,-5.75,8.88,19.49,-15.79,25.21
-1.86,-5.23,8.64,21.02,10.06,22.71
-2.44,-4.79,8.7,13.09,40,10.7
-3.66,-4.4,8.62,2.54,44.69,2.29
-3.08,-4.83,7.8,-2.46,23.6,-1.13
-2.37,-5.09,7.28,6.26,0.85,0.21
-1.44,-4.02,7.34,9.86,10.97,-0.76
-1.27,-3.63,7.44,6.14,34.82,-9.3
-1.52,-3.2,7.52,5.17,39.45,-14.79
-1.32,-3.15,7.87,7.18,32.56,-15.34
-1.07,-2.67,8.09,10.65,15.49,-10.82
-0.61,-2.21,8.71,13.52,1.22,-4.06
-0.22,-2.14,9.01,11.32,16.28,-8.2
-0.14,-1.47,9.42,4.37,35.3,-11.5
-0.75,-1.97,9.36,-0.69,37.56,-12.71
-1.04,-1.79,9.48,-4.65,18.66,-11.92
-0.35,-1.93,9.02,-3.92,8.84,-10.28
-0.12,-1.53,9.48,-3.68,15.61,-11.86
0.04,-1.28,9.68,-9.16,30.36,-14.91
-0.18,-1.51,9.27,-10.32,35.91,-13.57
-0.26,-1.53,9.3,-6.3,32.01,-6.13
-0.66,-1.49,9.19,-8.43,16.28,-2.04
-0.18,-1.32,9.06,-11.11,15,-3.93
0.01,-1.63,8.76,-13.55,23.54,-5.76
-0.05,-1.49,8.77,-9.77,36.77,-5.76
-0.28,-1.77,8.52,-7.82,46.16,-7.65
-0.71,-1.54,8.89,-7.15,32.07,-3.63
-0.47,-1.69,8.81,-0.57,18.9,-0.82
0.07,-1.47,8.93,-3.07,24.69,-2.78
0.26,-1.29,9.19,-5.02,42.07,-4.06
-0.13,-1.48,8.87,-6.97,47.07,-3.57
-0.79,-1.47,8.92,-5.87,37.32,-0.4
-1.07,-1.56,8.91,-4.16,20.55,-1.43
-0.58,-1.68,8.81,-4.29,16.77,-3.26
-0.18,-1.42,9.21,-6.36,28.96,-7.53
-0.07,-1.4,9.14,-8.55,37.07,-8.93
-0.31,-1.42,8.99,-10.69,35.24,-6.98
-0.5,-1.73,8.62,-10.26,28.84,-6.8
-0.31,-1.47,8.9,-6.3,22.93,-4.06
-0.2,-1.49,8.84,-5.81,23.78,-5.52
-0.1,-1.43,9.05,-7.09,29.33,-6.5
-0.2,-1.58,9.07,-7.64,35.18,-6.5
-0.49,-1.74,8.79,-8.74,37.44,-7.71
-2.18,-1.59,8.65,-0.87,38.66,-13.69
-1.16,-2.02,8.76,1.63,32.68,-12.96
-1.27,-1.63,8.89,2.12,26.83,-9.48
-1.11,-1.46,8.97,0.59,25.12,-10.64
-0.88,-1.38,9.03,-3.86,27.44,-12.41
-0.86,-1.58,8.81,-11.24,26.4,-8.32
-0.82,-2.01,8.37,-9.41,25,-6.74
-0.79,-2.08,8.32,-9.04,21.52,-2.53
-1.07,-1.8,8.84,-6.72,19.27,-3.39
-1.17,-1.25,9.16,-8.92,16.64,-8.63
0.63,-0.4,8.22,-6.3,27.86,-3.02
-0.19,-2.07,8.09,-8,26.58,-3.81
-0.73,-2.37,8.61,-3.92,24.51,0.33
-1.01,-2.95,8.17,-1.54,26.04,-1.07
-1.17,-3.26,7.94,0.47,30.12,-2.78
-1.59,-3.84,7.95,0.78,36.95,-3.57
-2.57,-4.27,7.82,2.12,41.89,-5.28
-2.96,-5.22,8.48,-4.04,44.88,-6.8
-2.92,-6.78,8.37,-17.33,52.13,-12.9
-2.91,-7.92,8.37,-27.03,75.55,-23.75
-3.28,-7.91,8.15,-29.77,91.77,-29.73
-3.95,-7.81,8.23,-29.96,92.68,-28.93
-4.13,-8.16,9.22,-30.02,71.28,-26.01
-3.61,-8.25,9.57,-32.64,64.57,-28.69
-3.18,-7.79,10.2,-39.59,75.36,-33.57
-3.17,-7.42,10.67,-52.46,75.61,-33.81
-2.98,-7.4,10.47,-67.88,64.08,-26.68
-3.05,-8.15,9.25,-66.91,63.35,-29.85
-2.56,-7.88,8.4,-49.83,35.91,-22.29
-1.95,-7.7,7.53,-31.48,-7.56,2.16
-1.26,-6.8,7.14,-16.97,-23.72,21.37
-1.54,-4.54,7.97,-25.02,-7.14,14.48
-1.85,-3.14,7.35,-51.91,36.28,-10.7
-1.83,-3.09,4.52,-55.99,68.66,-36.43
-1.34,-2.6,2.85,-22.33,51.4,-29.91
-0.62,-1.84,3.62,17.3,-24.15,-9.79
0.82,1.96,5.63,56.75,-26.83,-6.74
0.66,4.45,7.2,58.34,51.1,-18.39
-0.45,6.45,6.89,58.95,75.73,-12.47
-1.13,5.09,6.29,64.07,31.16,8.02
-2.71,8.88,5.51,99.8,6.95,17.35
-1.09,7.84,8.94,120.65,27.93,-4.36
-0.47,8.1,11.12,120.9,70.06,-18.51
-1.24,8.38,14.43,92.97,50.36,-20.21
-1.18,4.18,14.34,44.92,-29.03,-31.25
0.34,0.93,13.13,6.14,-64.76,-33.08
1.71,0.49,12.26,-6.85,-41.28,-28.75
2.27,1.07,10.83,-9.41,12.5,-21.19
1.61,0.69,9.58,-22.03,51.89,12.77
-0.72,-0.19,9.31,-16.18,65.3,34.36
-2.44,-0.47,8.47,-6.97,75.42,31.43
-3.34,0,8.74,3.28,72.44,10.88
-2.79,-0.14,8.86,6.69,46.52,-6.5
-1.5,-0.13,8.76,2.91,32.93,-3.57
-1.05,0,9.2,-3,43.29,10.4
-1.4,-0.66,9.34,-6.54,56.03,18.02
-2.46,-0.53,9.24,-2.33,62.68,17.16
-2.98,-0.64,8.75,-0.32,57.86,6.61
-3.11,-1.17,8.21,3.76,39.14,-6.13
-2.76,-0.57,8.12,8.7,35.85,-8.81
-2.01,0.05,9.04,-5.26,37.38,0.09
-1.92,-0.82,8.73,-13.74,40.12,3.81
-1.7,-0.59,8.59,-8,47.56,2.41
-1.93,-0.66,8.42,-6.42,57.01,-1.92
-2.28,-0.67,8.36,1.75,61.22,0.46
-2.57,-0.35,8.53,-0.87,51.89,2.47
-2.77,0.11,8.49,-8.92,37.44,7.35
-2.82,-0.38,8.37,-12.58,32.01,-0.03
-2.31,-0.42,8.26,-11.24,37.68,-4.24
-2.08,-0.98,7.77,-5.44,45.73,-2.29
-2.31,-1.19,7.57,6.51,56.71,0.82
-3.24,-1.26,7.98,15.71,54.63,0.64
-3.66,-0.62,8.9,16.02,45.3,-5.21
-3.45,-0.07,9.44,4.8,38.96,-8.87
-2.99,-0.41,9.74,-12.64,27.74,-6.56
-2.57,-0.77,8.95,-15.93,24.88,-6.43
-2.18,-0.78,8.76,-12.58,36.28,-6.56
-2.19,-0.13,8.93,-2.09,52.07,-9.97
-2.87,0.7,9.51,3.58,53.17,-18.87
-3.15,2.63,12.13,-26.11,15.97,-18.14
-1.69,3.35,12.45,-66.78,-21.34,-17.78
0.45,3.26,10.01,-73.31,10.67,-14.79
1.44,2.41,9.88,-47.39,61.77,-26.49
0.96,1.89,8.57,-4.83,96.16,-29.67
-1.06,2.96,9.01,17.24,71.28,-11.31
-2.02,5.38,9.61,20.35,26.28,8.2
-2.72,6.84,9.28,7.48,20.79,9.11
-2.67,5.46,9.32,-25.87,33.84,-9.12
-1.44,3.25,8.98,-49.59,46.58,-17.04
-1.47,2.56,9.31,-57.88,29.88,4.42
-2.78,3.08,9,-65.44,-12.07,25.82
-4.1,3.55,8.78,-71.36,-49.51,35.46
-3.42,1.15,8.26,-85.2,-44.57,21.98
-0.96,-1.23,7.99,-82.52,-0.79,8.63
-0.87,-2.09,8.53,-88.98,8.66,28.99
-3.64,-1.35,8.17,-86.42,-14.45,47.47
-5.36,-1.62,7.25,-77.88,-31.89,31.61
-4.38,-2.8,7.05,-58.13,-44.51,18.32
-2.31,-3.01,7.17,-70.26,-48.6,21.13
-1.45,-4.19,7.44,-54.35,-36.53,36.49
-2.67,-4.89,7.04,-56.91,-34.03,52.65
-3.99,-5.77,5.73,-46.42,-31.65,43.38
-3.73,-6.45,5.66,-16.48,-13.48,21.25
-2.41,-5.58,7.51,-4.53,-14.15,14.72
-1.91,-5.9,9.38,7.24,-32.01,22.71
-1.53,-6.02,10,8.89,-37.62,26.61
-1.99,-6.76,8.92,3.21,-23.05,19.48
-2.69,-7.16,7.97,1.63,-10.85,10.94
-3.31,-7.76,7.12,-1.48,-5.79,4.6
-3.53,-8.6,5.17,-4.16,-6.16,3.02
-3.2,-8.91,4.7,1.57,-0.37,-0.52
-3.4,-8.06,4.25,0.41,25.73,-3.63
-4.28,-7.95,4.8,16.69,44.69,-10.95
-4.12,-6.85,5.25,22.97,33.41,-17.04
-2.91,-6.44,6.05,30.59,22.38,-20.95
-1.86,-4.97,7.43,29.98,17.44,-18.57
-0.68,-4.07,8.53,17.67,44.63,-25.95
-0.23,-3.77,9.36,13.28,52.19,-24.73
-0.11,-3.62,9.52,5.84,29.33,-17.71
0.43,-3.81,8.71,4.13,14.27,-8.08
0.52,-3.2,8.93,5.23,18.41,-6.25
0.28,-3.12,8.77,0.41,33.17,-10.03
-0.2,-3.13,8.14,-1.18,31.46,-8.93
-0.39,-3.08,8.03,1.14,18.11,-1.98
-0.38,-2.74,8.64,2.54,11.52,0.64
-0.13,-2.33,8.77,0.35,9.39,1.37
-0.03,-2.26,8.8,-1.18,24.69,-0.7
-0.59,-2.29,8.87,-1.42,26.77,1.07
-0.78,-2.4,8.99,-1.48,22.99,2.22
-0.95,-2.21,9.15,0.47,17.32,2.29
-0.61,-2.19,9.16,-3.25,22.62,-0.28
-0.68,-2.13,8.96,-6.24,28.35,-3.63
-0.66,-2.35,8.97,-5.5,34.51,-7.84
-0.61,-2.38,8.92,-6.18,33.66,-7.9
-0.55,-2.22,9.03,-2.4,27.86,-6.8
-0.45,-2.31,8.96,-3,18.66,-3.51
-0.23,-1.98,9.32,-4.77,23.35,-5.15
-0.2,-2.2,9.12,-8.31,34.75,-8.51
-0.37,-2.37,8.85,-9.29,33.78,-7.41
-0.54,-2.6,8.49,-1.85,20.49,-2.9
-0.98,-1.78,7.47,0.84,37.99,-5.89
-0.95,-2.32,9.15,-0.81,41.16,-2.78
-0.9,-2.34,8.94,-2.76,32.86,-2.29
-0.9,-2.24,8.84,-4.35,24.63,-3.87
-0.29,-2.6,8.99,-4.83,27.5,-3.93
-0.34,-2.66,8.67,-5.5,31.1,1.37
-0.76,-2.51,8.74,-3.31,26.34,-2.04
-1.23,-1.48,8.81,-8.55,17.86,-1.8
-1.33,-1.78,8.49,-15.75,12.38,-6.74
2.56,-19.6,4.67,-85.44,2.8,-19.36
-1.56,-2.31,9.35,-17.21,22.56,1.61
-0.9,-2.21,9.15,-13.86,25.67,-0.15
-0.76,-2.5,8.65,-12.82,26.04,-1.13
-1,-2.48,8.66,-11.11,22.8,-3.39
-0.88,-2.33,8.85,-9.1,22.32,-4.6
-0.68,-2.6,8.71,-5.87,25.55,-4.91
-0.67,-2.38,8.72,-3,28.66,-6.56
-0.65,-2.38,8.67,-2.52,30.24,-8.26
-0.67,-2.32,8.51,-1.66,28.47,-6.8
-0.87,-2.42,8.35,-1.05,26.83,-5.82
-0.84,-2.03,8.68,-4.16,25.61,-6.92
-0.48,-2.2,8.76,-7.27,33.29,-8.45
-0.44,-2.34,8.63,-7.21,33.47,-6.62
-0.69,-2.3,8.71,-4.16,23.54,-4.42
-0.62,-2.51,8.69,-3.25,24.14,-4.85
-0.6,-2.27,8.82,-2.46,30.18,-8.57
-0.53,-2.48,8.69,-3.86,35.49,-9.36
-0.63,-2.58,8.49,-3.55,30.85,-5.15
-0.83,-2.77,8.32,-1.72,27.44,-2.53
-1,-3.3,8.2,-1.91,22.38,-2.1
-0.93,-3.65,8.39,-0.75,25.97,-4.48
-1.08,-3.95,8.43,-3.98,33.41,-5.09
-1.41,-4.4,8.15,-5.38,38.66,-3.57
-2.12,-5.31,7.77,-7.88,39.45,-4.06
-2.29,-6.17,7.37,-13.43,37.8,-11.74
-1.77,-7.27,7.31,-13.68,37.99,-19.18
-1.26,-7.22,7.87,-16.48,40.73,-15.89
-1.77,-7.47,7.74,-18.86,48.23,-13.14
-2.62,-8.1,7.31,-20.2,46.03,-10.28
-3.07,-8.78,7.31,-20.2,48.29,-18.32
-2.75,-8.65,8.26,-25.99,83.72,-33.32
-3.4,-8.72,8.07,-31.91,107.31,-40.58
-4.07,-8.62,7.57,-33.43,83.23,-30.76
-4.08,-9.19,6.88,-25.75,44.51,-9.48
-2.76,-8.38,6.98,-9.71,36.77,0.21
-2.37,-7.15,7.27,8.21,94.81,-24.18
-3.81,-4.78,9.3,-4.59,95.18,-33.2
-4.6,-4.81,9.46,-29.16,48.11,-43.38
-3.47,-4.76,8.32,-34.22,40,-41.43
-2.23,-5.28,6.63,-15.69,73.96,-35.03
-1.88,-4.45,6.63,13.76,70.67,-18.93
-2.12,-3.41,6.32,30.41,32.62,1.92
-3.78,-0.85,7.09,37.73,-22.07,-4.73
-2.01,1.31,6.3,44.01,7.74,-42.29
-0.09,2.66,5.69,63.4,102.5,-52.23
-0.87,4.6,5.98,85.84,77.56,-21.62
-0.16,4.81,8.37,110.71,-26.22,1.68
1.67,8.08,6.25,109.68,-87.26,-2.71
3.91,10.05,9.44,126.45,4.82,-23.81
3.16,10.28,15.27,109.19,96.03,-3.2
0.83,8.2,17.03,56.32,39.39,-11.92
1.21,4.84,15,0.41,-57.2,-13.99
4,1.2,11.33,-25.63,-31.4,-9.6
3.21,0.88,10.53,-10.57,67.01,26.07
-0.89,1.75,10.65,-16.91,95.12,47.71
-3.44,1.59,8.87,-17.21,80.42,38.69
-3.93,0.67,7.85,-14.53,72.13,20.88
-4.26,0.09,7.95,-9.16,50.49,7.1
-3.77,-0.22,7.98,5.47,32.8,-11.01
-2.31,1.07,9.4,3.64,22.86,-9.06
-1.69,0.89,10.54,-18.43,17.44,-0.21
-1.2,-0.89,9.51,-19.29,27.5,4.48
-1.59,-0.71,9.36,-15.32,42.38,9.72
-2.59,-0.64,8.53,-7.21,47.74,9.91
-3.61,-0.58,8.04,5.9,46.89,-1.92
-3.89,0.05,8.64,2.48,37.8,-9.48
-3.45,0.29,9.17,-11.79,30,-13.87
-2.34,-0.57,8.91,-22.09,22.93,-12.23
-1.45,-1.28,8.12,-14.65,34.33,-7.53
-1.89,-1.12,8.26,-2.88,47.38,-4.42
-2.65,-0.8,8.67,1.08,43.17,-7.47
-2.86,-0.08,8.78,2.91,38.23,-13.02
-2.13,0.28,8.88,-9.22,36.52,-15.21
-1.37,-0.32,8.4,-14.29,34.94,-11.25
-0.93,-0.41,8.52,-8.74,37.68,-6.5
-1.25,-0.17,9.03,-7.64,37.68,-1.68
-2.16,0.27,9.11,-3.43,33.9,-8.02
-2.43,0.71,8.58,12.73,25.06,-27.29
-1.84,2.87,8.98,23.82,1.4,-35.03
-0.19,2.78,8.9,25.23,-13.35,-30.58
-0.44,3.24,10.65,27.3,-13.96,-22.1
-1.62,5.14,11.28,16.87,-15.98,-17.1
-1.43,6.31,10.76,-5.26,-14.03,-21.31
0.41,5.53,10.22,-37.82,17.56,-35.09
1.27,4.09,9.38,-46.11,57.99,-20.46
-0.31,4.53,9.92,-51.6,75.49,-9.6
-2.07,5.05,9.98,-70.02,14.14,5.46
-1.75,4.61,8.4,-71.97,-19.76,16
-0.21,2.83,8.49,-52.52,8.35,-6.43
1.08,2.36,10.09,-67.21,25.43,7.35
0.46,1.58,9.9,-74.35,26.28,42.96
-1.69,0.73,8.7,-66.24,22.01,60.21
-3.4,0.54,8.96,-73.86,-18.11,48.63
-2.14,-0.57,7.89,-70.32,-45.12,37.16
-0.41,-2.71,8.6,-63.86,-31.28,35.09
-0.19,-2.38,7.79,-56.11,-2.62,49.85
-1.22,-2.36,7.94,-49.77,-2.81,59.11
-2.84,-4.49,7.25,-50.2,-23.6,57.71
-2.6,-5.01,6.85,-42.58,-35.24,50.46
-2.24,-6.39,7.17,-35.63,-27.01,38.38
-1.81,-6.26,7.07,-27.33,-17.5,29.72
-1.27,-5.69,8.01,-19.41,-30.49,28.69
-0.68,-6.64,7.2,-14.41,-20.73,32.89
-0.64,-6.33,8.64,1.45,-5.43,30.82
-1.72,-7.23,8.3,-0.44,1.34,27.83
-1.46,-6.49,9.75,1.14,-6.46,21.74
-0.92,-6.81,9.76,-10.87,11.89,18.81
-1.43,-7.89,8.3,-14.83,22.62,28.63
-2.41,-7.87,7.49,-12.15,38.29,26.68
-3.96,-7.57,6.57,-10.99,47.5,25.27
-4.63,-7.21,6.09,-16.05,40.36,18.5
-4.21,-7.63,5.73,-25.87,49.27,5.03
-2.85,-7.34,4.36,-9.22,57.93,3.63
-3.11,-6.9,5.37,13.89,65.55,0.4
-3.51,-6.02,6.48,22.36,48.41,8.38
-2.85,-4.71,7.35,16.57,36.28,2.35
-1.67,-4.46,7.64,10.1,49.14,-10.52
-1.17,-3.98,8.24,5.84,63.78,-22.17
-1.04,-3.62,8.5,-0.08,40.18,-16.92
-0.71,-3.76,7.94,-0.2,15.61,-6.25
-0.28,-3.17,7.91,-0.02,10.67,-6.74
0.34,-2.95,8.06,-1.54,37.13,-17.53
-0.12,-2.7,8.24,-5.93,34.94,-11.86
-0.64,-3.09,8.15,-0.93,12.86,-4.6
-0.66,-2.95,8.08,1.45,-3.05,0.33
-0.19,-2.76,8.36,3.21,11.04,-6.92
-0.04,-2.44,8.94,-0.63,29.33,-9.24
-0.6,-2.62,8.86,-1.91,25.79,-7.04
-1.01,-2.6,8.71,-2.03,10.06,0.76
-1.1,-2.52,8.65,-0.14,4.39,-0.95
-2.07,-1.45,8.61,-2.7,35.91,-15.76
-1.11,-2.2,8.94,0.71,34.82,-9.24
-1.09,-1.94,9.06,-0.38,28.29,-3.14
-1.23,-1.95,8.64,-2.33,21.04,-2.78
-1.03,-1.94,8.94,-5.26,26.16,-8.08
-1.15,-1.96,8.96,-7.27,26.71,-11.07
-1.21,-2.07,8.9,-8.98,20.49,-12.71
-1.05,-1.54,8.65,-10.81,15.79,-9.18
-0.86,-1.68,8.66,-9.9,17.74,-3.39
-0.98,-1.74,8.98,-9.04,23.6,-4.67
-0.97,-2.07,8.69,-9.41,29.45,-4.6
-1.19,-2.04,8.62,-6.11,26.77,-4.3
-0.98,-1.45,8.26,3.03,24.02,-2.65
-0.59,-1.8,8.09,-3.61,29.21,-7.17
-0.95,-2.08,8.66,-2.15,27.56,-5.64
-0.94,-2.34,8.39,-0.87,30.97,-6.07
-1,-2.46,8.3,0.04,29.08,-3.93
-1,-2.79,8.2,2.54,25.85,-2.47
-1.1,-3.01,8.35,1.81,30.43,-3.2
-1.58,-3.71,9.06,-0.2,30.73,-0.76
-2.01,-4.5,9.27,-5.32,27.8,1.19
-1.97,-4.99,9.18,-12.46,27.99,0.52
-1.9,-5.63,8.29,-20.14,43.6,-3.26
-2.29,-6.18,7.34,-23.31,66.83,-7.9
-3.25,-7.13,6.91,-22.76,67.8,-9.6
-3.32,-7.52,6.92,-21.54,48.35,-8.57
-2.78,-7.71,7.17,-19.1,40.97,-7.35
-2.28,-7.1,7.79,-18.86,68.72,-14.18
-2.69,-6.93,8.54,-21.42,96.64,-24.24
-3.52,-7.7,8.86,-20.32,80.06,-24.06
-3.87,-7.97,8.56,-16.18,44.75,-14.42
-3.47,-7.59,8.61,-7.88,30.06,-12.71
-2.51,-6.76,9.34,-6.42,87.62,-32.71
-3.41,-6.11,9.21,-12.27,132.25,-50.15
-5.18,-5.77,8.91,-23.25,69.14,-46.56
-4.58,-5.8,7,-26.54,-36.04,-22.9
-1.95,-5.88,5.45,4.86,-60.31,-23.51
1.1,-4.89,7.04,36.26,75.24,-33.81
-1.27,-2.95,8.91,29.92,163.29,-28.32
-5.3,-0.68,8.82,-16.36,110.18,-35.28
-5.02,-1.61,5.23,-27.15,21.04,-32.29
-3.61,-1.51,3.7,11.87,-48.9,-21.68
-0.65,1.66,4.91,67.85,-5.49,-25.52
-0.38,5.08,7.51,73.88,69.88,-38.81
-3.02,8.76,6.17,34.8,75,-45.4
-0.28,6.47,6.5,83.64,15.24,-20.64
-0.99,7.74,8.05,104.37,-34.39,-6.74
1.36,8.26,9.44,112.66,26.71,-12.17
0.5,8.87,11.73,123.03,136.89,-3.57
-3.01,8.2,14.16,79.98,104.39,-14.36
-2.62,4.19,12.4,25.96,-12.44,-40.52
0.52,2.76,11.14,0.71,-64.57,-38.2
2.61,2.16,11.02,-21.36,-31.95,-18.69
2.54,1.12,9.41,-23.07,29.69,10.03
0.95,0.58,8.8,-12.64,76.95,25.46
-1.48,0.43,8.24,-7.4,82.74,36.25
-3.9,0.68,7.2,-3.13,68.53,22.77
-4.41,0.7,6.61,10.9,51.4,5.15
-3.98,0.78,7.17,22.91,38.78,-5.34
-3.58,1.48,9.85,10.41,13.96,-0.21
-2.96,0.95,10.78,-15.57,-0.61,5.27
-2.12,0.01,9.47,-13.49,20.24,3.87
-2.32,-0.28,8.97,-6.42,42.8,6.86
-3.32,-0.23,8.39,7.79,53.29,5.09
-4.32,-0.09,9.12,11.32,37.5,-5.89
-3.95,-0.03,8.93,4.8,15.43,-14.3
-2.62,0.32,9.19,0.96,20.49,-15.82
-1.54,-0.18,9.36,-1.85,33.84,-9.6
-1.77,-0.41,9.29,-2.09,42.07,-2.47
-2.13,-0.46,9.34,-1.11,42.68,-0.34
-2.48,-0.43,9.36,0.78,48.6,2.71
-2.87,0.02,9.42,-3.98,48.05,-1.01
-2.9,-0.18,8.87,-5.93,38.11,-8.2
-2.51,-0.38,8.56,-7.94,29.27,-5.76
-2,-0.51,8.23,-6.3,32.07,-1.37
-2.32,-0.27,8.27,0.17,37.93,-2.1
-2.56,-0.3,8.51,3.46,37.56,-7.65
-2.73,-0.12,8.54,2.24,29.94,-10.21
-2.4,-0.14,8.7,-2.58,27.86,-9.91
-2.23,-0.17,8.73,-10.2,29.45,-4.73
-2.03,-0.31,8.11,-6.3,35.24,-1.62
-2.02,-0.32,8.01,-2.4,42.38,1.31
-2.69,-0.15,8.41,-0.38,44.57,-0.76
-3.32,0.06,8.58,-1.05,37.13,-5.58
-3.34,0.46,8.11,-7.88,31.64,-8.81
-3.01,0.19,8.37,-18.07,20.36,-4.24
-2.63,-0.48,8.15,-13.74,20.3,-2.23
-2.51,-0.34,8.52,-8.8,28.66,-1.37
-2.76,-0.32,8.61,-2.82,36.46,-2.84
-3.25,-0.29,8.45,3.89,37.25,-8.63
-3.21,0.21,8.82,0.9,33.72,-8.81
-2.96,0.16,9.34,-15.69,24.33,-0.95
-2.64,-0.28,8.76,-15.93,26.95,-0.34
-2.62,-0.23,8.51,-10.75,33.47,-0.89
-2.81,-0.45,8.21,-6.42,32.68,-3.75
-2.73,-0.28,8.33,-2.09,36.04,-6.98
-2.92,-0.16,8.38,1.63,36.71,-5.89
-3.01,0.45,8.87,-8.68,32.32,-3.26
-2.83,0.02,8.67,-12.33,25.24,-6.01
-2.27,-0.22,8.36,-10.32,27.68,-6.13
-2.22,0,8.65,-7.21,28.41,-2.35
-2.33,0,8.7,-5.08,35.18,-1.92
-2.46,0.18,8.61,-0.02,42.38,-4.42
-2.88,0.25,8.28,7.97,44.27,-8.93
-3.31,1.12,8.61,8.4,44.45,-12.9
-3.68,1.72,9.01,-5.69,34.27,-14.85
-3.9,1.64,8.9,-13.07,22.38,-21.07
-3.62,2.12,8.81,-13.37,3.41,-31.86
-2.68,1.38,8.71,-8.31,-7.44,-35.64
-1.53,1.21,8.54,4.25,7.25,-36.25
-0.84,1.88,9.12,14.31,32.44,-16.07
-1.9,3.14,10.31,4.74,44.08,2.29
-2.93,4.38,10.55,-19.59,23.54,12.41
-2.24,4.1,9.23,-43.8,6.83,8.2
-1.15,2.43,7.87,-41.97,34.21,6.37
-1.49,2.81,8.33,-29.83,65.24,8.26
-2.15,3.66,9.02,-30.99,72.32,12.1
-3.11,4.76,9.16,-39.59,62.01,24.18
-3.74,4.91,9.44,-61.36,36.77,13.99
-2.7,2.75,8.41,-76.6,25.12,7.77
-2.47,1.56,8.25,-63.07,19.33,14.11
-3.27,2.82,8.72,-61.36,12.86,21.74
-3.97,4.13,8.5,-69.65,2.93,19.3
-3.52,3.42,7.23,-68.61,-10.18,12.89
-2.34,0.49,6.77,-80.44,-40.55,16
-0.43,-1.86,6.13,-70.69,-50.06,31.55
-0.73,-2.42,7.26,-45.75,-43.66,53.63
-2.38,-0.75,7.87,-45.5,-51.77,56.74
-2.37,-0.41,7.93,-39.71,-57.13,40.39
-1.16,-0.92,8.16,-44.28,-58.17,38.5
-0.4,-2.46,8.11,-43.19,-29.64,33.93
-1.5,-2.96,8.38,-32.27,-16.95,43.5
-2.58,-3.46,8.33,-19.77,-38.35,47.04
-1.99,-3.55,8.04,-25.69,-55.61,43.93
-1.23,-4.4,8.12,-16.36,-26.83,22.89
-0.39,-5.68,7.87,-14.71,-4.21,10.27
-0.86,-5.82,8.48,-4.71,-9.76,23.32
-2.5,-6.23,9.06,13.4,-25.12,27.65
-2.57,-6.26,8.9,11.02,-29.7,20.58
-2.12,-6.55,9.84,18.34,-17.87,10.58
-1.68,-1.95,8.53,-5.63,39.63,-7.96
-1.37,-1.79,8.47,0.9,38.96,-8.14
-1.53,-1.86,8.54,1.57,36.4,-9.48
-1.62,-1.73,8.62,0.65,33.66,-10.76
-1.47,-1.67,8.78,-1.97,30.85,-12.59
-1.07,-1.85,8.75,-8.8,27.32,-8.57
-1.22,-2.18,8.51,-10.38,27.68,-4.91
-1.65,-2.19,8.05,-9.77,22.56,-6.25
-1.95,-2.42,8.23,-3.98,14.08,-7.84
-2.1,-2.08,8.41,-2.88,8.47,-10.76
-3.21,-4.58,10.82,0.9,-2.81,-4.18
-2.34,-3.58,8.66,-2.46,9.39,-8.63
-2.35,-4.02,9.03,0.71,17.56,-11.19
-2.5,-4.42,8.59,-3.43,29.57,-13.45
-2.41,-4.9,8.65,-3.8,36.95,-16.19
-2.09,-5.77,8.31,-7.94,40.24,-13.14
-2.07,-6.59,7.84,-9.96,48.96,-13.2
-2.34,-6.71,7.86,-10.93,47.5,-11.86
-2.25,-6.68,8.18,-15.5,42.68,-12.1
-1.88,-7.23,8.4,-18.31,45.79,-15.58
-1.66,-7.31,8.33,-14.41,62.25,-13.51
-2.24,-7.17,8.35,-8.8,77.8,-14.12
-3.37,-6.48,8.82,-9.04,79.21,-15.46
-3.96,-6.12,9.29,-17.7,64.27,-23.51
-3.58,-5.88,9.37,-26.91,56.71,-38.2
-2.72,-5.69,9.13,-28.92,54.82,-43.2
-2.5,-5.01,9.23,-30.08,64.82,-43.69
-3.26,-4.53,9.03,-28,30.85,-36.13
-2.69,-4.61,7.77,-16.54,-0.12,-30.34
-1.34,-3.89,7.12,2.54,32.25,-31.49
-2.2,-2.24,8.83,2.73,51.4,-35.15
-2.07,-1.31,8.9,-10.63,32.38,-32.59
-1.58,-1.53,8.16,-13.13,2.44,-22.04
-0.7,-1.33,7.33,11.14,22.86,-20.09
-1.25,-0.76,7.27,32.97,88.11,-23.63
-2.85,0.51,6.83,46.2,120.85,-22.35
-4.88,2.63,6.96,31.51,65.24,-23.93
-4.68,3.1,7.05,36.87,-32.38,-9
-0.96,2.39,7.56,38.21,-26.46,-3.51
0.09,4.27,7.29,39.43,44.88,-5.21
-0.76,4.14,6.38,42.73,88.47,-3.14
-2.1,4.74,5.54,62.73,58.78,7.83
-2.15,3.28,5.93,75.1,16.71,7.96
-0.51,4.1,6.47,87.79,50.3,21.37
-1.37,4.3,8.16,91.57,101.16,18.63
-2.89,4.81,10.47,86.87,79.21,20.39
-3.97,3.96,12.84,61.26,9.75,4.24
-2.14,3.06,14.74,21.2,-30.61,-11.01
1.44,2.22,13.72,-25.38,-9.03,-5.15
1.51,2.45,10.87,-41.42,51.89,20.33
-0.57,2.25,7.27,-29.35,98.47,35.09
-2.63,3.07,6.06,-8.74,109.45,32.22
-3.8,3.4,6.51,5.23,91.28,18.63
-3.76,4.18,7.37,7.67,48.9,5.4
-3.3,3.64,7.91,13.09,18.17,-8.51
-2.17,3.85,9.41,5.96,4.33,-12.04
-1.86,3.18,10.22,-1.85,2.74,-14.24
-1.93,2.7,10.55,-3.49,7.32,-19.79
-1.93,2.62,10.39,-2.09,18.66,-23.75
-1.77,2.89,10.61,0.47,33.6,-28.57
-2.46,3.4,11.03,-3.68,21.83,-35.64
-2.52,4.69,10.96,-14.89,-10.31,-34.54
-1.45,4.56,10.16,-23.43,-2.2,-35.28
0.53,4.22,10.03,-30.14,48.96,-32.23
-0.11,4.09,10.43,-48.13,97.31,-11.13
-3.06,5.97,10.89,-74.35,59.69,6.74
-4.17,6.6,9.91,-93.49,1.71,2.59
-2.2,5.85,7.61,-100.44,1.34,-18.45
1.34,1.9,6.84,-96.11,43.9,-22.9
1.16,-0.38,7.84,-85.44,67.5,32.16
-2.7,1.53,8.73,-78.43,22.19,69.54
-4.56,2.5,9.07,-79.89,-26.65,60.27
-3.31,2.65,7.45,-81.66,-14.27,44.6
-2.18,0.1,7.54,-77.15,2.38,35.27
-1.46,-1.78,7.09,-77.21,13.05,51.98
-3.37,-2.02,7.53,-62.7,-10.98,68.57
-4.24,-1.66,6.53,-56.36,-30.61,55.94
-3.4,-0.91,7.41,-53.19,-45.79,41.37
-3.45,-1.46,9.27,-57.21,-63.17,42.53
-2.18,-1.87,9.47,-49.77,-55.43,48.63
-2.04,-2.73,8.91,-51.24,-22.93,42.83
-2.62,-2.97,8.34,-44.96,-2.99,31.92
-2.34,-3.39,6.92,-43.98,-14.7,23.26
-1.95,-4.41,6.09,-29.1,-9.88,20.46
-3.53,-5.26,5.78,-10.69,6.16,12.41
-4.58,-5.17,6.37,-1.24,4.51,-8.32
-4.09,-5.88,6.26,4.68,2.8,-25.28
-3.35,-6.26,5.76,13.52,-41.95,-22.78
-1.99,-7.22,5.82,23.76,-80.12,-11.13
-1.37,-7.65,5.47,40.78,-47.5,-17.17
-1.64,-6.54,6.9,44.56,-6.46,-25.89
-2.57,-6.54,7.6,41.87,6.58,-23.51
-3.03,-6.75,7.74,38.09,-25.73,-22.35
-2.07,-6.84,7.98,38.09,-37.87,-16.86
-1.6,-6.82,8.36,31.45,-19.15,-14.79
-1.94,-6.4,8.4,31.45,-4.33,-22.1
-1.86,-5.79,8.17,25.29,9.82,-28.75
-2.04,-5.13,9.25,27.42,1.58,-23.02
-1.59,-5.1,9.66,5.9,-5.67,-18.32
-0.6,-4.63,9.52,1.93,11.34,-18.45
0.2,-4.03,9.88,3.64,50.61,-27.78
0.51,-3.26,10.57,-5.14,57.56,-25.15
0.85,-2.67,10.27,-16.97,32.93,-13.26
1.23,-2.62,9.38,-23.92,22.32,-5.03
1.43,-2.2,9.35,-21.85,39.69,-10.28
1.32,-1.93,9.19,-25.14,56.83,-10.46
0.49,-1.66,8.97,-23.98,45.79,-0.7
-0.24,-1.66,8.5,-23.74,28.29,7.96
-0.32,-1.6,8.06,-21.42,22.93,7.9
-0.43,-1.98,7.89,-19.77,32.99,-0.89
-0.49,-1.73,7.94,-15.38,42.38,-7.29
-0.57,-2.04,7.99,-7.33,40.12,-8.87
-0.74,-1.8,8.16,-6.24,25.36,-6.25
-0.28,-1.75,8.42,-2.82,22.38,-7.29
0.2,-1.98,8.79,-2.76,32.93,-11.92
0.5,-1.72,8.99,-3.19,38.96,-11.8
0.45,-1.81,9.11,-4.9,40.12,-8.51
0.28,-2.13,9.05,-2.15,39.14,-5.09
0.05,-1.85,9.7,-1.6,30.24,-5.89
0.33,-1.82,9.7,-6.18,34.39,-8.93
0.42,-1.87,9.53,-12.7,40.73,-8.75
0.14,-1.96,9.16,-11.48,37.13,-4.36
-0.17,-2,9.2,-14.1,23.54,-1.31
0.19,-2.14,8.71,-13.31,26.52,-1.98
0.41,-2.19,8.42,-12.94,44.27,-4.97
0.2,-2.23,8.32,-10.69,50.61,-3.14
-0.46,-2.24,8.18,-11.54,39.27,-1.07
-0.83,-2.23,8.18,-11.24,23.05,0.52
-0.51,-2.3,8.06,-7.7,18.47,-0.21
-0.12,-2.13,8.57,-2.58,28.54,-3.45
0.05,-2.22,8.76,-4.83,37.38,-3.93
-0.17,-2.31,8.71,-3.37,35.43,-0.4
-0.32,-2.36,8.64,-0.38,25.36,3.99
-0.39,-2.08,8.85,2.54,18.96,3.57
-0.2,-1.8,9.2,-1.97,18.6,-0.03
0.36,-1.97,9.57,-4.77,24.63,-2.29
0.56,-1.88,9.24,-4.29,33.84,3.14
0.42,-1.83,9.43,-4.96,39.21,6.25
0.04,-1.89,9.29,-8.43,42.19,7.47
-0.24,-1.86,9.08,-5.44,34.33,5.76
0.49,-12.44,8.35,6.81,35.49,-11.19
-1.35,-1.18,8.84,-3.49,28.47,-4.12
-1.28,-1.06,9.04,-5.63,26.64,-2.96
-1.37,-1.06,8.96,-6.6,24.69,-6.5
-1.13,-1.05,9.12,-9.04,23.96,-5.95
-1.24,-1.1,9.09,-12.82,23.9,-6.43
-1.2,-1.25,9.14,-13.55,22.19,-6.07
-1.13,-0.98,8.78,-12.09,17.5,-4.06
-0.99,-1.16,8.58,-8.07,20.12,-0.58
-1.18,-0.77,8.65,-7.15,21.77,-0.82
-1.07,-1.06,8.98,-6.36,25.97,0.09
-0.39,-1.47,8.38,-3.61,25.73,-3.2
-1.2,-0.87,8.74,-6.79,25.36,-1.56
-1.11,-1.03,8.76,-3.55,27.99,-2.71
-0.95,-1.19,8.49,-1.36,32.8,-3.02
-1.24,-1.39,8.74,2.24,30.91,-3.63
-1.22,-0.94,8.99,2.18,24.45,-2.96
-0.99,-1.13,9.13,3.4,22.68,-3.75
-0.96,-1.03,9.11,-1.11,28.96,-4.54
-0.86,-1.19,8.67,-2.21,33.05,-4.3
-1.08,-1.13,8.91,-0.81,29.57,-2.53
-1.11,-1.27,8.71,-0.57,26.04,-2.1
-1.13,-1.42,8.87,0.04,24.82,-3.39
-1.08,-1.51,8.69,-2.03,30.06,-5.64
-1.17,-1.66,8.62,-1.6,33.05,-5.15
-1.41,-1.98,8.55,0.65,32.32,-4.3
-1.79,-2.39,8.93,1.08,27.07,-4.73
-1.79,-3.07,9.29,-1.48,10.49,-2.84
-1.3,-3.61,9.72,-4.71,-5,2.96
-0.68,-4.09,10.14,-11.79,0.49,6.92
-0.67,-4.67,10.05,-25.57,32.38,6.13
-1.67,-5.75,9.28,-40.32,70,-1.43
-3.09,-6.61,8.41,-48.86,80.42,-9.3
-3.42,-7.67,7.85,-49.96,52.8,-7.47
-3.11,-7.6,8.08,-45.08,18.78,1.49
-2.55,-7.37,8.57,-43.86,31.89,1
-2.72,-7.37,9.32,-43.31,68.11,-5.15
-4.19,-7.29,9.57,-49.1,65.67,-13.75
-4.52,-7.33,9.06,-55.14,23.35,-20.03
-2.72,-7.47,8.37,-48.49,17.62,-26.37
-1.34,-6.9,8.89,-40.75,79.21,-38.08
-2.12,-6.59,9.06,-35.75,107.01,-44.54
-2.63,-6.13,8.12,-33.31,75.79,-32.59
-3.9,-4.78,6.9,-28.8,23.29,-29.73
-3.77,-4.13,6.38,-19.89,-16.89,-40.82
-1.1,-3.42,6.66,-10.08,-4.45,-41.07
0.21,-3.13,6.64,-7.94,83.9,-44.67
-1.15,-1.75,5.24,-0.14,145.24,-37.17
-3.41,-0.98,3.4,11.93,137.74,-30.21
-4.86,1.08,2.17,32.12,66.71,-25.89
-4.69,2.83,2.21,73.88,-45.79,-23.69
-0.26,6.89,2.69,109.49,-44.94,-41.8
2.51,9.99,6.95,118.15,51.22,-26.43
-0.16,10.61,9.88,133.64,113.29,-5.4
-3.88,11.13,12.71,130.41,57.62,-0.95
-3.73,10.7,15.06,102.24,-14.33,-34.42
1.33,10.41,15.12,46.32,-41.46,-65.82
4.52,4.51,13.4,-9.04,-55.85,-42.9
4.46,0.93,11.49,-22.33,-46.59,-6.07
2.58,1.15,10.38,-20.81,12.32,15.76
0.84,1.06,9.64,-15.87,84.08,18.93
-0.37,0.84,9.19,-14.35,113.53,24.42
-2.37,0.36,7.67,-12.82,99.33,34.6
-4.32,0.6,7.05,-4.35,66.58,30.46
-4.68,0.91,7.96,3.89,35.79,5.88
-2.74,1.01,9.31,-0.93,11.65,-9.06
-1.23,-0.13,9.08,-1.97,7.32,-7.53
-0.54,0.06,9.18,-3.43,23.9,9.36
-1.64,-0.39,9.33,-2.15,34.39,14.66
-2.41,-0.03,9.58,-4.22,41.1,13.75
-3.02,-0.21,8.62,-4.29,44.75,6.49
-3.53,-0.35,8.45,-0.2,36.28,0.27
-3.02,-0.32,8.76,0.04,18.66,-5.76
-1.99,-0.25,9.41,-2.52,27.01,-6.98
-1.82,-0.28,9.69,-7.64,43.17,-0.58
-2.49,-0.45,9.41,-15.99,42.93,1.55
-2.29,-0.72,8.75,-13.49,43.35,-0.21
-2.24,-0.64,8.42,-6.42,43.9,-3.63
-2.06,-0.21,8.54,-3.86,42.44,-2.47
-2.33,-0.3,8.44,-1.97,44.27,-4.12
-2.6,-0.17,8.88,-5.02,38.47,-5.58
-2.38,-0.26,8.76,-10.93,25.49,-6.07
-1.67,-0.48,8.12,-7.82,29.88,-3.45
-1.57,-0.37,7.81,-4.71,43.35,-1.01
-2.31,-0.52,8.25,-2.82,43.6,-0.76
-2.98,-0.55,8.24,-0.75,37.44,-5.09
-2.92,-0.08,8.61,-6.11,25.18,-5.76
-2.22,-0.36,8.18,-10.32,22.8,-5.34
-1.56,-0.75,7.71,-4.59,35.24,0.58
-2.08,-0.57,8.24,2.18,45.97,1.37
-3.21,-0.3,8.72,2.24,37.32,-1.5
-3.31,-0.24,8.51,3.4,27.07,-9.36
-2.6,0.06,8.83,1.32,24.14,-12.23
-1.44,-0.28,9.01,-3.31,25.97,-5.58
-1.25,-0.42,9.07,-5.99,39.45,4.48
-2.25,-0.22,9.51,-8.61,44.08,6.43
-3.07,-0.18,9.34,-12.46,39.57,0.03
-2.84,-0.24,9.08,-13.92,34.21,-4.97
-2.13,-0.45,8.51,-15.2,35.85,-2.9
-2.23,-0.47,8.43,-9.29,41.28,3.26
-2.86,-0.19,8.6,-8.31,38.53,3.32
-3.25,-0.04,8.57,-9.22,32.13,-1.98
-2.79,-0.11,8.46,-13.37,29.63,-5.82
-2.02,-0.51,8.2,-12.33,37.93,-2.1
-2.35,-0.54,8.18,-6.11,52.19,3.32
-3.36,-0.46,8.37,-3.37,45.06,1.37
-3.76,-0.05,8.76,-7.7,34.63,-3.87
-3.48,-0.33,8.49,-12.27,32.86,-8.93
-2.81,-0.38,8.4,-9.1,38.41,-9.79
-2.65,-0.51,8.47,-4.41,37.25,-9.97
-2.74,-0.49,8.79,0.84,32.86,-8.2
-2.98,-0.72,9.12,3.64,20.67,-11.25
-2.71,-0.38,9.15,7.12,19.82,-15.46
-2.63,-0.04,9.78,4.25,21.58,-20.21
-2.32,0.88,9.94,-0.81,22.19,-20.03
-2.14,1.77,11.11,-7.76,10.97,-22.04
-2.02,3.11,11.2,-14.65,-5.92,-27.1
-1.97,5.63,10.18,-7.58,-25.55,-33.99
-0.94,5.77,10.15,-4.53,-41.1,-45.76
0.8,7.85,8.76,-10.08,-40.67,-30.58
1.09,8.93,9.55,-24.65,-8.6,-20.34
1.24,9.88,9.92,-48.55,31.16,-7.71
-0.06,11.31,9.5,-71.24,66.64,31.74
-2.83,9.92,8.98,-89.47,53.11,37.89
-3.39,7.04,6.87,-104.96,-23.66,37.22
-0.51,4.28,5.98,-93.74,-68.9,50.27
1.78,2.48,5.66,-81.3,-57.68,75.46
0.37,1.52,5.38,-69.16,-21.28,90.64
-2.63,1.52,6.4,-40.93,-20.92,95.58
-3.45,-0.47,6.37,-36.97,-31.16,100.39
-2.96,-2.17,6.88,-32.39,-28.05,91.06
-3.36,-4.59,7.04,-19.29,-15.12,71.37
-3.6,-5.09,8.54,-11.85,-35.43,60.82
-3.89,-5.74,8.51,-8.68,-40.67,42.16
-3.24,-5.73,9.83,-4.96,-33.84,16.61
-2.39,-7.25,9.58,-20.2,-24.57,1.13
-1.72,-8.73,8.48,-26.48,-27.14,-7.84
-0.74,-9.34,7.74,-20.99,-48.6,-9.06
0.16,-9.15,8.3,-5.63,-47.68,1.74
-0.38,-8.57,8.77,-0.87,-17.62,3.38
-1.49,-1.69,8.63,-2.03,33.72,-9.12
-1.28,-1.81,8.91,0.84,32.62,-10.28
-1.36,-1.69,8.95,-2.76,29.14,-7.23
-1.41,-1.79,8.78,-3.74,27.86,-6.37
-1.63,-1.75,8.62,-5.69,25.91,-7.1
-1.52,-1.9,8.37,-4.22,27.62,-7.53
-1.44,-2.2,8.28,-0.2,26.77,-6.92
-1.26,-2.18,8.71,-2.15,20.3,-1.07
-1.57,-1.89,8.36,-0.57,17.13,0.21
-1.84,-1.56,8.48,-1.36,13.47,-6.19
-1.34,-0.92,10.18,6.08,17.8,-8.14
-0.98,-2.11,8.38,1.87,23.9,-11.5
-1.03,-2.48,8.99,4.68,24.08,-6.19
-1.45,-2.99,8.96,6.08,25.91,-3.26
-2.25,-3.08,9.36,5.35,26.71,-5.28
-2.6,-3.4,9.5,-2.21,22.68,-11.31
-2.48,-4.27,9.3,-8.13,23.72,-16.74
-2.2,-4.96,8.95,-17.82,32.13,-19.54
-2.2,-5.91,8.4,-26.97,39.82,-21.68
-2.37,-6.38,8.04,-27.7,45.97,-22.04
-2.83,-6.74,8.12,-24.89,52.8,-19.18
-3.12,-6.52,9.08,-26.97,55.79,-17.78
-3.24,-6.81,8.8,-32.82,53.11,-19.06
-3.5,-6.57,8.91,-39.59,44.94,-25.46
-3.22,-7.26,8.33,-44.89,49.88,-37.35
-2.41,-7.57,8.04,-41.36,87.01,-47.65
-3.3,-7.53,7.93,-32.09,96.95,-42.71
-4.09,-7.54,7.63,-19.83,61.03,-32.41
-4.04,-7.52,7.5,-8.31,-1.83,-12.65
-1.79,-6.85,7.16,8.34,-15.37,-5.03
-0.47,-5.6,7.9,15.9,71.89,-10.76
-2.66,-4.07,8.57,1.08,136.77,-20.15
-4.86,-3.63,8.24,-36.97,104.51,-27.53
-5.54,-3.35,6.16,-44.65,-9.51,-16.31
-2.97,-4.33,3.87,-16.85,-82.07,-4.54
1.2,-2.39,3.78,34.8,36.83,-21.31
-0.01,1.38,5.26,55.53,197.8,-31.49
-3.91,3.72,5.08,49.25,164.27,-19.6
-4.71,3.15,4.51,98.46,17.07,-10.76
-1.89,6.34,3.23,143.64,-102.99,-0.52
1.07,10.95,6.24,166.32,-78.42,-25.15
3.37,12.91,10.77,161.81,90.73,-16.56
-1.14,11.59,15.21,136.69,139.45,5.33
-4.14,9.88,15.9,75.29,45.49,-11.19
-1.54,5.92,13.49,29.68,-30.73,-41.43
1.32,3.22,12.84,1.93,-46.59,-46.86
3.41,1.7,10.64,-20.02,-24.64,-16.25
2.95,0.21,8.28,-16.48,37.99,21.92
-0.19,0.79,8.27,-0.5,83.41,44.97
-3.76,1.52,9.37,0.04,83.72,33.69
-4.82,1.05,8.99,-8.37,50.79,8.87
-3.09,0.89,7.83,-2.7,37.19,-5.76
-1.95,0.43,7.87,2.85,32.13,-4.06
-1.61,0.53,9.04,2.97,26.77,8.57
-2.1,0.92,10.15,-9.16,31.71,15.27
-2.73,0.53,9.37,-13.07,36.77,8.57
-2.74,0.42,8.75,-10.63,32.5,-0.21
-1.88,0.04,8.16,-2.03,39.08,-2.53
-2.36,0,8.22,8.52,48.17,0.64
-3.23,0.99,9.04,2.6,42.93,4.05
-3.71,1.04,9.64,-13.86,27.01,0.58
-3.06,0.49,8.83,-19.22,22.44,-6.25
-2.16,0.2,8.51,-14.71,35.73,-10.64
-1.14,0.11,8.45,-9.83,63.23,-3.93
-1.84,0.35,8.57,-5.75,75.18,5.15
-3.32,0.82,8.64,-4.47,61.1,4.11
-4.28,1.52,8.99,-5.32,37.32,-8.51
-3.83,1.95,9.35,-9.47,14.14,-21.98
-2.18,2.99,9.19,-9.71,19.88,-34.18
-0.98,3.17,9.01,-10.08,42.99,-37.96
-1,4.28,9.41,-11.72,51.34,-30.03
-1.84,5.36,9.75,-16.42,40.85,-21.49
-2.52,7.49,9.96,-31.72,18.17,-20.82
-2.34,7.24,9.03,-51.97,11.58,-22.47
-1.61,7,8.22,-69.04,27.62,-19.67
-1.46,6.06,7.46,-72.76,59.33,-16.07
-2.63,4.74,7.54,-80.2,39.75,-6.68
-2.61,4.02,6.92,-81.72,6.46,10.88
-2.86,3.67,6.88,-74.77,5.79,16.98
-3.04,3.16,7.37,-71.24,10.91,21.49
-2.74,1.09,7.35,-74.35,7.68,31.61
-2.85,-0.39,7.51,-57.39,-3.84,48.87
-3.83,-0.47,7.42,-50.99,-22.2,53.2
-3.72,-0.08,7.78,-48.19,-30.85,48.02
-3.16,-1.27,8.19,-35.02,-18.54,38.44
-2.38,-2.46,8.42,-31.79,-0.25,40.46
-3.46,-3.2,8.77,-35.87,-8.66,40.58
-3.41,-3.9,8.18,-20.63,-17.32,33.26
-2.6,-3.75,7.57,-12.94,-30,25.58
-1.69,-3.78,8.18,-13.92,-43.96,23.44
-1.16,-4.03,8.75,-9.65,-31.95,27.35
-2.03,-4.72,8.62,-16.42,-18.29,26.43
-2.48,-4.49,8.73,-20.14,-10.37,16.8
-2.12,-4.97,8.7,-16.72,-6.4,4.85
-1.1,-5.57,8.73,-13,-10.06,4.72
-0.88,-5.89,8.67,-0.2,-10.73,15.58
-1.29,-5.87,9.14,4.92,2.32,13.63
-1.94,-5.45,9.72,-7.27,7.32,14.79
-2.27,-5.56,9.89,-5.38,5.49,12.89
-2.36,-5.75,9.58,-14.65,9.08,9.79
-2.43,-6.2,8.58,-14.29,15.36,6.86
-2.66,-6.45,7.55,-11.48,21.89,6.92
-3.33,-5.98,7.77,-0.57,18.23,4.48
-3.16,-5.86,7.5,4.68,14.57,1.25
-2.67,-5.78,7.32,9.68,23.6,-0.34
-2.99,-5.21,7.53,8.34,29.39,-0.4
-2.96,-4.73,7.44,3.89,43.9,-1.19
-3.08,-4.37,7.5,0.29,55.12,-6.98
-2.81,-4,7.73,0.71,44.02,-11.13
-1.97,-3.63,8.23,1.57,20.43,-12.04
-0.19,-2.99,7.99,-0.93,8.72,-9.85
1.1,-2.62,8.48,3.09,20.3,1.13
1.06,-2.1,8.87,3.09,39.14,13.38
-0.03,-1.58,9.21,-3.61,43.66,20.21
-1.25,-1.66,8.8,-14.16,24.69,17.35
-1.12,-2.01,8.22,-9.65,12.25,11.31
-0.72,-1.82,8.47,-5.32,25.73,5.64
-0.85,-1.66,8.88,-2.52,32.86,5.27
-1.33,-1.4,9.04,-3.55,28.17,5.76
-1.23,-1.65,8.65,-8.07,22.56,4.05
-1.4,-1.61,8.43,-8.61,18.72,1.07
-1.1,-1.78,8.23,-5.99,20.06,-1.25
-1.01,-1.7,8.24,-5.87,23.11,-1.86
-1.21,-1.65,8.42,-2.58,24.75,-5.28
-0.87,-1.79,8.78,-0.02,26.22,-4.85
-0.8,-1.51,9.43,-1.54,29.88,-4.48
-0.89,-1.35,9.55,-4.47,27.86,-4.91
-0.72,-1.61,9.34,-8.74,24.82,-5.34
-0.75,-1.61,9.02,-10.26,22.62,-4.67
-0.65,-1.73,8.67,-7.88,26.58,-3.02
-0.73,-1.66,8.77,-6.79,32.38,-2.1
-0.85,-1.73,8.69,-6.97,35.67,-1.86
-1.33,-1.77,8.7,-4.77,29.45,-0.52
-1.34,-1.68,8.89,-4.22,17.07,-2.96
-0.83,-1.44,8.76,-7.76,14.14,-4.79
-0.3,-1.71,8.87,-4.83,30.61,-3.69
-0.75,-1.74,8.81,-6.97,36.77,-0.64
-1.05,-1.82,8.78,-4.96,33.72,-0.76
-1.12,-1.88,8.54,-4.41,24.94,-1.19
-0.91,-1.85,8.55,-2.33,19.14,-0.89
-1.65,-1.19,7.63,-3.74,38.47,-17.17
-1.51,-1.86,8.54,-3.37,36.46,-6.86
-1.54,-1.47,8.68,-4.53,30.06,-0.95
-1.71,-1.64,8.58,-4.35,24.88,-0.52
-1.5,-1.73,8.51,-0.69,22.5,-2.78
-0.9,-1.8,8.98,-1.3,25.97,-0.21
-1.1,-1.68,9.02,-3,27.86,2.65
-1.68,-1.42,9.27,-8.49,17.32,-0.09
-1.74,-1.58,9.16,-10.26,8.54,-10.7
-1.32,-1.59,8.92,-9.65,11.22,-17.1
-0.92,-1.37,8.55,-8.31,22.01,-8.45
0.21,-0.37,8.98,0.53,34.02,1.37
-1.11,-1.4,8.23,-2.21,26.77,-1.8
-1.49,-1.43,8.57,-3.49,22.13,-5.21
-1.25,-1.63,8.67,-3.55,31.16,-10.34
-1.08,-1.65,8.74,0.9,36.16,-9.36
-1.19,-1.66,8.71,3.58,30.43,-7.47
-1.22,-1.58,8.55,3.64,27.32,-6.31
-1.19,-1.45,8.72,1.32,28.05,-8.26
-0.95,-1.71,8.77,0.84,30.49,-8.08
-1.17,-1.7,9.05,2.3,30.06,-6.86
-1.14,-1.74,8.96,3.28,26.83,-5.28
-1.12,-1.63,9.09,2.97,27.01,-3.26
-1.24,-1.77,8.89,0.47,31.64,-4.06
-1.53,-1.91,8.76,-1.05,32.8,-6.25
-1.74,-2.2,8.79,-1.79,31.46,-4.48
-2.12,-2.54,8.82,-1.97,31.52,-4.79
-2.61,-2.77,9.25,-4.53,31.4,-8.02
-2.58,-3.28,9.63,-7.64,33.29,-10.95
-2.48,-3.45,10.11,-15.57,32.99,-12.71
-2.4,-3.73,10.27,-23.25,36.89,-11.86
-2.65,-4.11,10.35,-31.79,45.3,-14.36
-2.5,-4.87,9.77,-44.28,52.99,-19.12
-2.32,-5.71,9.02,-53.07,62.25,-23.32
-2.33,-6.58,7.66,-57.58,69.82,-22.23
-2.6,-7.35,6.34,-48.92,75.24,-19.85
-2.76,-7.38,6.19,-38.37,68.17,-13.93
-2.97,-7.27,6.62,-33.13,50.43,-9.97
-2.42,-7.24,7.38,-31.72,42.56,-6.56
-2.66,-6.86,7.91,-37.76,45.24,-10.15
-2.62,-7.01,8.03,-42.82,46.1,-16.92
-2.65,-7.42,7.75,-43.43,58.6,-30.46
-2.34,-7.6,8.24,-40.87,72.44,-35.28
-2.48,-7.31,8.19,-36.66,62.01,-22.35
-3.03,-6.8,7.94,-29.16,34.75,-9.91
-2.58,-6.27,7.67,-14.83,24.21,-11.98
-2.8,-5.12,8.18,-17.03,32.44,-16.25
-3.45,-4.59,7.78,-32.33,34.51,-31.25
-3.46,-4.73,6.22,-29.47,16.22,-34.79
-2.4,-4.64,5.74,-2.4,12.25,-30.46
-1.35,-3.27,6.37,11.81,39.63,-15.89
-2.28,-1.28,6.21,16.75,72.74,-7.71
-3.37,0.74,4.93,20.41,67.8,-11.43
-3.67,2.37,2.22,35.65,4.39,-9.85
-2.17,3.88,1.52,93.76,-74.27,-8.75
0.95,6.65,4.67,144.98,-34.88,-28.87
3.44,8.88,8.56,155.53,84.51,-24.73
2.18,8.92,12.2,137.12,144.69,20.39
-1.58,8.55,13.2,110.16,120.06,46.61
-4.13,7.57,12.64,81.63,69.51,21.25
-4.11,6.08,11.94,49.43,5.79,-17.96
-1.49,3.81,10.72,26.87,-33.42,-44.18
1.94,1.6,10.01,5.47,-42.32,-33.26
3.05,0.67,9,9.25,3.78,2.83
1.18,1.1,9.01,14.25,57.5,22.41
-1.64,1.07,9.13,11.81,86.34,26.31
-3.64,1.46,8.42,10.35,78.9,18.75
-4.16,1.64,8.37,11.51,41.28,3.69
-3.08,1.19,8.97,5.78,12.19,-5.03
-2.22,0.77,9.15,2.18,14.08,-3.87
-2.09,0.25,9.25,1.51,25.73,-0.4
-2.04,0.17,9.31,6.26,49.27,1.61
-3.42,0.61,9.53,5.78,54.27,2.47
-4.23,0.22,8.98,-3.74,28.96,-0.52
-3.85,0.09,8.59,-4.1,18.6,-2.9
-3.1,-0.06,8.66,-2.09,27.13,-4.6
-2.69,0.01,8.82,-0.26,42.62,-6.56
-3.01,0.06,8.83,2.54,43.96,-4.91
-3.04,0.15,8.81,-2.03,31.83,-7.71
-2.37,0.04,8.9,-3.43,31.4,-4.6
-2.29,-0.15,8.84,-8.43,33.05,2.22
-2.7,-0.2,8.42,-5.99,37.74,1.98
-2.95,-0.21,8.52,-1.05,41.52,-3.45
-2.89,0.23,8.81,0.84,39.33,-7.9
-2.79,0.28,8.85,3.64,38.84,-11.31
-2.36,0.74,9.1,-1.91,40.06,-8.69
-2.67,0.72,9.34,-18.37,26.04,0.58
-2.67,0.24,8.46,-21.05,26.58,2.9
-3,0.62,8.43,-16.66,40.43,-1.07
-3.38,0.73,8.68,-13.92,49.14,-7.84
-3.89,0.99,8.69,-10.75,38.47,-15.03
-3.59,0.89,8.23,-1.85,28.47,-24.36
-3.08,1.5,8.63,6.45,18.17,-29.97
-2.64,2.48,9.56,0.84,1.95,-29.73
-2.29,3.63,10.03,-18.55,-21.22,-23.26
-1.93,3.82,9.87,-43.86,-36.53,-11.5
-1.46,3.87,9.22,-56.66,-36.89,2.71
-1.34,3.96,8.95,-57.03,-26.59,3.69
-0.59,4.76,8.59,-55.14,-10,5.27
-0.25,4.73,8.88,-61.91,3.6,11.19
-0.2,3.54,8.54,-74.04,26.64,22.89
-1.3,3.6,8.27,-78.55,44.14,27.22
-2.27,4.17,8.37,-79.16,26.71,19.42
-1.94,3.42,8.11,-73.43,-4.33,20.64
-0.64,2.78,8.69,-65.69,-6.34,21.25
-0.02,1.87,8.38,-64.35,6.34,27.59
-0.71,1.49,8.75,-67.76,3.29,46.8
-2.06,1.81,8.51,-73,-30.12,60.27
-1.8,0.73,7.62,-60.14,-40.37,47.22
-0.09,-1.96,7.86,-56.36,-10.92,33.69
0.43,-1.61,7.28,-52.39,5.12,52.89
-0.95,-2.12,7.39,-39.96,-1.34,72.59
-2.57,-1.9,8.08,-30.02,-21.4,67.89
-2.88,-2.53,8.08,-24.53,-21.28,58.57
-2.77,-3.15,7.99,-17.27,-24.45,45.15
-2.06,-4.2,7.9,-14.59,-29.76,36.86
-1.3,-4.45,8.09,-5.81,-40.85,36.55
-1.46,-5.26,7.95,5.23,-44.39,40.64
-2.23,-5.22,9.25,4.01,-40.37,33.69
-2.42,-5.42,9.68,10.04,-26.83,20.03
-1.88,-6.65,9.42,12.73,-10.98,10.03
-2.46,-7.75,8.69,25.41,-17.38,10.82
-3.18,-7.79,8.51,41.02,-32.44,0.21
-3.13,-7.6,7.66,36.69,-31.1,-17.17
-2.2,-7.24,8.15,46.26,-2.81,-37.78
-2.02,-7.41,8.23,39.37,19.51,-37.1
-2.53,-6.75,8.62,35.41,9.88,-29.06
-2.43,-6.72,7.94,28.34,-0.31,-28.32
-1.87,-6.02,7.6,20.23,13.11,-34.6
-0.85,-5.52,7.54,20.41,46.89,-39.6
-0.41,-4.67,8.46,18.7,64.82,-29.91
-0.6,-3.97,8.93,10.78,55.18,-17.23
-0.4,-3.22,9.32,5.96,34.21,-10.46
0.62,-2.68,9.29,-1.66,36.52,-6.74
1.09,-2.13,9.51,-5.02,56.28,-3.69
0.64,-1.96,9.48,-10.93,63.84,-1.8
0.23,-2,9.22,-12.88,45,2.96
0.23,-1.9,8.86,-12.15,24.08,3.87
0.47,-1.49,9.04,-10.44,24.57,-0.03
0.78,-1.56,8.75,-10.99,42.99,-4
-1.71,-1.6,9.08,5.04,41.34,0.94
-1.61,-1.34,8.92,7.06,35.3,-1.92
-1.61,-1.39,8.99,3.76,36.46,-6.62
-1.59,-1.49,8.74,1.39,35.67,-8.69
-1.77,-1.58,8.56,3.4,33.35,-10.58
-1.54,-1.65,8.64,1.45,27.19,-8.75
-1.51,-1.4,9.05,-2.58,23.84,-5.15
-1.22,-2.02,8.48,-8.37,22.62,-6.13
-1.28,-1.83,8.27,-2.52,20.49,-0.76
-1.78,-0.67,9.01,-6.3,8.72,-0.7
-1.53,-1.25,8.71,139.62,36.83,-18.63
-1.28,-1.93,9.14,-7.03,12.01,-10.09
-0.74,-1.3,9.06,-5.32,20.91,-6.62
-0.87,-1.61,8.73,-3.92,28.47,-3.26
-1.11,-1.85,8.75,2.73,29.63,-3.63
-1.56,-1.75,8.57,3.64,25.24,-5.34
-1.55,-1.92,8.4,6.57,25.55,-8.57
-1.56,-1.89,8.43,9.25,27.32,-9.48
-1.53,-2.26,8.23,9.5,30.06,-8.32
-1.54,-2.57,8.59,9.68,26.04,-7.96
-1.68,-2.98,9.04,9.74,23.17,-5.4
-1.87,-3,9.67,4.43,24.57,-5.34
-1.95,-3.19,10.08,-8.55,31.95,-7.78
-1.96,-3.88,9.97,-22.7,35.79,-9.79
-1.76,-4.8,9.47,-31.97,36.77,-5.76
-2.09,-5.06,8.96,-38.61,46.34,-4.3
-2.51,-5.47,8.91,-39.16,59.57,-6.92
-2.7,-5.53,9.04,-50.2,60.3,-11.31
-2.47,-5.97,8.63,-60.87,62.74,-16.19
-2.38,-6.35,8.28,-64.83,70.61,-17.78
-2.62,-6.72,8.22,-63.55,70.12,-14.42
-3,-7.03,7.77,-58.13,72.32,-14.79
-3.63,-7.13,7.81,-52.7,75.12,-19.18
-4.01,-7.31,7.82,-47.7,75.49,-28.81
-4.27,-7,8.15,-41.54,58.35,-33.32
-4.11,-7.05,8.03,-37.09,34.33,-36.86
-3.31,-6.67,7.99,-31.91,35.06,-39.48
-3.15,-6.04,8.28,-27.94,36.1,-39.24
-2.58,-5.42,8.46,-19.89,33.54,-33.32
-2.93,-4.76,8.14,-14.53,12.07,-26.62
-2.26,-4.6,7.48,-0.87,-7.2,-26.86
-1.24,-3.77,7.73,13.7,1.58,-21.86
-0.95,-2.7,8.64,18.15,38.84,-16.43
-2.16,-0.65,9.6,3.82,62.19,-15.7
-2.62,-0.37,8.12,-15.69,53.84,-32.53
-2.02,-1.41,6.1,10.53,54.27,-30.4
-1.88,-0.84,5.68,42.42,36.34,-24.73
-2.11,0.12,7.97,62.12,-1.34,-9.48
-1.71,2.68,7.25,59.01,-16.95,-11.13
-1.12,3.03,6.94,64.37,10.43,-28.08
-0.51,3.62,6.72,68.09,35.91,-30.89
0.03,3.9,6.69,72.18,29.94,-20.89
0.18,4.58,6.59,89.13,29.51,-6.92
-0.07,5.82,7.65,93.21,47.74,-8.02
-0.69,5.07,8.29,88.09,83.23,-9.36
-2.15,4.64,9.31,81.63,105.67,-4.67
-4.05,3.85,10.35,59.56,57.68,-13.87
-2.83,2.63,10.04,40.78,-11.04,-35.7
0.8,1.28,10.49,30.04,-29.64,-42.84
1.99,0.34,10.04,26.32,8.78,-18.63
0.62,0.86,9.56,19.19,54.88,-0.58
-1.26,1.35,9.38,6.32,83.41,11.8
-2.61,1.64,9.48,-6.79,85.42,12.41
-3.57,1.14,9.13,-14.65,50.43,5.52
-2.98,0.29,8.01,-13.86,23.05,0.15
-2.04,-0.11,7.65,-2.58,21.52,-3.39
-1.51,0.1,8.72,9.56,35.61,-0.09
-1.51,0.42,9.57,12.18,53.72,2.77
-2.17,0.63,10.03,4.19,58.35,7.9
-2.92,0.14,9.35,-5.99,46.34,9.11
-3.52,0.25,8.53,-5.63,31.71,6.49
-3.3,0.05,8.54,-5.14,30.36,-0.7
-2.67,0.02,8.94,-5.63,33.35,-2.04
-2.18,-0.44,9.43,-6.18,39.75,1.92
-2.24,-0.16,9.71,-8.19,48.9,3.26
-2.7,-0.16,9.54,-12.82,49.27,4.05
-2.95,-0.23,8.93,-14.65,46.89,3.08
-2.96,0.11,8.92,-20.5,41.1,5.15
-3.19,0.04,8.64,-19.65,37.07,3.26
-3.2,0.08,8.68,-20.02,30.36,-1.86
-2.84,-0.46,8.4,-17.88,33.11,-4.91
-2.65,-0.39,8.42,-13.31,44.51,-2.9
-3.18,-0.45,8.38,-7.82,50.24,-0.95
-3.62,0.17,8.56,-8.43,39.02,-1.13
-3.55,0.33,8.54,-11.91,22.5,-5.21
-2.77,0.46,8.44,-11.48,12.32,-10.95
-1.91,0.29,8.28,-6.97,19.63,-14.36
-1.52,0.77,8.54,0.65,42.68,-8.81
-2.29,1.29,9.61,-3.86,48.9,-0.21
-3.31,2.08,10.35,-17.64,21.16,-1.01
-3.25,3.49,10.62,-38.86,-20.24,-5.82
-2.34,3.69,10,-51.6,-27.44,-20.21
-1.3,3.3,9.06,-51.48,0.24,-31.01
-1.19,3.86,9.36,-54.53,15.61,-25.4
-1.97,4.63,9.3,-65.69,1.52,-6.13
-2.25,3.45,8.6,-75.32,-21.04,-6.19
-0.49,3.08,7.7,-75.32,-7.2,-4.48
0.77,1.45,7.78,-69.35,32.32,4.42
-0.64,3.01,9.06,-78.92,49.69,32.65
-2.97,2.51,8.42,-92.27,33.6,39.66
-3.39,2.97,7.65,-80.08,12.93,28.08
-2.37,2.19,7.85,-73.61,-5.06,26.92
-0.89,0.26,7.94,-70.32,-18.66,43.87
-0.44,-0.84,7.99,-61.42,-8.35,60.7
-1.7,-0.38,8.52,-50.81,4.63,68.87
-2.76,-0.07,7.8,-50.14,10.3,64.36
-3.2,-0.09,8.05,-54.16,7.38,55.21
-2.3,-2.65,7.38,-54.1,-0.79,53.02
-1.43,-3.87,7.08,-40.75,1.46,53.81
-1.52,-4.32,6.93,-30.75,-1.71,63.69
-2.53,-4.84,6.88,-17.88,-6.46,65.33
-3.45,-4.08,6.87,-9.1,-9.15,51.61
-2.89,-5.01,6.42,-7.76,-26.77,39.05
-1.55,-4.84,6.89,-3.43,-21.95,31.68
-1.32,-5.36,8.07,1.69,-16.83,37.83
-1.56,-5.66,7.94,-3.37,-4.39,39.91
-2.66,-6.06,7.77,10.47,-26.53,45.15
-3.16,-6.19,7.81,18.64,-58.35,43.93
-2.61,-5.98,8.59,34.19,-51.46,31.98
-1.96,-5.73,9.1,31.45,-13.35,9.97
-2.01,-5.58,9.32,27.3,30.06,5.03
-3.75,-6.15,9.62,24.49,7.99,6.92
-4.51,-5.91,9.4,23.89,-35,4.48
-4.05,-6.14,8.81,24.98,-47.2,-11.43
-2.87,-5.99,8.73,30.53,-17.38,-26.49
-2.58,-5.59,9.27,27.85,25.12,-26.62
-3.54,-5.43,8.92,15.59,51.22,-14.67
-5.63,-5.07,7.74,5.41,38.78,-7.23
-6.19,-5.42,6.38,8.03,14.57,-14.48
-4.81,-4.96,6.64,27.36,9.63,-42.04
-2.19,-3.74,8.66,32.3,26.89,-55.46
0.27,-3.3,9.93,19.25,51.83,-52.17
1.61,-2.68,10.43,5.04,68.47,-33.02
1.33,-2.35,10.64,-10.5,63.72,-19.18
1,-2.39,10.06,-21.05,52.38,-12.84
0.78,-2.95,9.52,-21.72,44.33,-9.48
0.5,-2.28,9.66,-22.88,37.44,-6.8
0.22,-2.29,9.02,-25.08,38.84,-6.43
0.04,-2.01,8.6,-26.3,35.36,-5.89
-0.01,-1.98,8.14,-24.04,25,-0.82
2.31,-12.93,6.22,25.23,54.69,-7.23
-1.57,-2.15,8.76,5.78,38.66,-6.56
-1.53,-1.58,8.62,5.9,35.06,-5.52
-1.48,-1.49,8.73,3.76,32.07,-5.89
-1.49,-1.75,8.2,8.46,33.9,-7.96
-1.85,-1.85,8.33,15.47,31.64,-11.8
-1.88,-1.26,8.8,5.84,16.22,-12.17
-1.52,-1.68,8.73,-1.48,10.24,-11.8
-1.19,-1.56,8.48,-2.09,15.06,-6.86
-1.25,-0.87,9.05,-4.83,13.23,-3.69
-1.27,-1.39,8.99,-4.77,17.8,-4.48
-1.3,-1.57,9.05,-2.03,21.58,-8.2
-1.27,-1.71,9.14,1.08,20.91,-6.74
-0.67,-2,8.3,3.89,21.83,-3.02
-0.95,-1.56,8.67,-0.63,24.88,-2.41
-1.41,-1.75,8.72,-0.5,27.19,-2.78
-1.37,-1.58,8.76,1.45,30.3,-0.95
-1.37,-1.66,8.77,4.01,31.58,-0.58
-1.53,-1.97,8.85,6.69,31.71,-1.43
-1.62,-2,8.93,4.86,30.91,-1.37
-1.81,-2.31,8.95,3.7,35.49,1.68
-2.14,-2.33,9.01,0.96,40.36,3.32
-2.68,-2.66,9.2,-3.68,42.62,2.1
-2.68,-2.9,9.28,-13.49,41.16,-0.95
-2.36,-3.87,9.25,-20.32,40.91,-4
-2.07,-4.41,9.13,-27.7,47.8,-1.01
-2.41,-5.11,8.8,-30.57,60.79,0.58
-3.12,-5.32,8.78,-34.65,67.44,0.27
-3.54,-5.65,8.56,-41.18,65.36,-0.7
-3.86,-5.94,8.12,-47.09,65.73,-7.41
-3.6,-6.39,7.76,-47.15,67.5,-17.1
-3.22,-6.32,8.44,-42.21,55.97,-11.86
-2.79,-6.16,8.9,-38.31,43.9,-2.17
-2.62,-5.82,9.15,-35.5,52.19,8.26
-3.12,-5.29,9.47,-39.83,79.82,5.15
-4.15,-5.54,9.25,-46.66,99.33,-12.59
-5.07,-5.33,9.28,-55.38,71.4,-23.26
-4.23,-5.47,8.68,-60.02,13.84,-24.6
-2.09,-5.49,7.85,-49.22,12.44,-15.4
-1.18,-4.65,7.69,-28.98,66.71,-4.91
-2.15,-3.95,8.06,-21.85,86.58,9.36
-4.55,-3.24,8.29,-20.63,18.47,16.86
-5.08,-2.16,8.09,-27.94,-65.98,11.13
-2.34,-2.36,7.23,-24.35,-50.43,-25.4
0,-2.75,6.66,3.03,86.58,-43.14
-2.06,-1.37,7.01,22.06,166.4,-33.26
-4.95,-0.75,6.39,21.39,116.4,-18.81
-4.99,0.48,5.45,14.98,7.68,-6.07
-4.93,0.31,6.3,43.28,-48.84,-10.76
-1.78,1.86,4.58,42.24,-26.95,-27.47
-0.46,3.06,4.65,75.41,57.44,-35.03
-1.1,3.93,5.99,86.2,68.17,-21.86
-1.52,4.59,7.25,91.99,5.43,-7.53
-0.24,5.06,7.86,97.3,-38.84,3.08
0.41,6.44,8.68,110.04,-10.55,-0.52
0.93,5.9,9.41,116.51,64.88,-11.13
-0.45,5.09,10.81,107.18,103.96,-6.86
-2.5,4.07,11.44,68.03,40.61,-11.01
-2.02,2.57,12.12,32.12,-39.39,-25.28
0.08,2.58,12.35,0.29,-59.45,-38.45
2.26,0.93,10.72,-16.24,-5.49,-26.8
2.3,0.05,9.22,-10.93,62.13,3.2
0.17,0.33,8.49,-1.91,89.57,33.99
-2.34,1.09,7.99,-0.26,78.11,38.14
-4.15,1.42,7.14,0.9,62.5,26.98
-4.75,1.71,6.92,9.56,48.53,0.4
-3.61,1.51,7.52,9.19,29.94,-23.02
-2.11,1.09,8.53,1.63,17.62,-22.71
-1.3,0.36,9.25,-1.66,15.24,-6.25
-1.84,0.21,9.3,-3.37,11.52,5.21
-2.34,0.01,8.9,0.23,21.04,4.18
-2.8,0.24,8.97,5.65,36.64,-2.17
-2.79,0.33,9.14,11.08,43.6,-8.63
-2.42,0.83,9.3,1.08,38.11,-5.95
-1.84,0.28,9.06,-10.2,32.56,6.13
-2.18,-0.22,8.28,-6.72,38.17,17.47
-3.31,0.11,9.14,-0.26,38.6,11.55
-3.64,0.42,9.57,-3.55,36.04,0.46
-3.09,0.32,9.38,-6.36,36.04,-9.36
-2.19,0.22,9.13,-13.49,34.69,-3.57
-2.01,0.01,8.36,-18.92,36.64,11.86
-2.78,-0.22,7.77,-8.61,41.1,16.31
-3.51,0.1,8.62,-1.36,43.84,6.49
-3.59,0.34,9.32,-0.99,39.57,-6.19
-3.21,0.33,9.38,-5.99,31.77,-13.08
-2.43,0.11,8.45,-5.99,30.85,-12.23
-2.25,0.21,7.94,-10.81,30.79,-0.76
-2.63,-0.21,7.79,-7.33,31.28,4.85
-2.97,0.16,8.15,-3.37,35.61,3.26
-3.35,0.44,8.48,-3.68,36.04,-3.02
-3.3,0.18,8.45,-2.7,33.6,-12.65
-2.9,0.32,8.22,2.48,29.57,-20.4
-2.52,0.6,8.43,-0.2,27.74,-17.1
-2.33,0.67,8.56,-7.88,23.47,-7.9
-2.3,0.89,8.51,-10.81,25.73,-2.59
-2.43,1.07,8.58,-14.96,27.93,-2.04
-2.34,1.44,8.68,-17.52,24.63,-3.75
-2.29,1.62,8.53,-18.92,14.14,-8.93
-2.18,2.08,9.07,-14.1,5.24,-13.2
-1.84,2.59,9.1,-20.69,-0.85,-13.32
-1.71,2.51,9.37,-31.05,2.01,-6.74
-1.96,2.5,9.73,-39.83,2.99,-0.76
-2.24,3.48,10.08,-48.19,-3.42,-0.7
-2.52,4.49,10.53,-58.19,-13.42,-12.84
-1.52,4.85,9.9,-60.75,-14.82,-24.12
-0.1,3.71,9.19,-64.35,3.78,-22.84
1.56,1.41,8.65,-57.58,46.52,-6.31
0.73,2.25,9.33,-57.46,78.66,35.03
-2.27,4.19,9.77,-74.35,68.72,46
-4.34,4.98,9.27,-79.77,19.39,35.39
-3.3,5.22,9.09,-79.41,-21.65,18.08
-0.71,2.1,8.41,-87.27,-25.67,15.46
0.69,0.45,8.43,-85.56,4.15,47.04
-0.88,0.96,7.85,-78.61,29.45,71.98
-4.09,2.74,8.16,-83.43,-14.7,82.71
-4.16,2.06,8.23,-68.31,-53.6,60.21
-1.39,-0.49,7.06,-54.96,-42.07,41.74
1.17,-1.23,6.85,-47.82,-3.17,52.77
0.23,-1.57,6.95,-43.68,0.67,79.3
-1.29,-2.26,6.41,-34.71,-37.81,96.13
-2.13,-1.51,6.84,-21.97,-72.99,96.13
-1.47,-2.2,7.24,-18.25,-58.48,77.96
-0.5,-2.52,8.15,-6.3,-33.54,69.36
-0.15,-3.59,7.57,-3.49,8.35,62.16
-1.57,-4.96,7.31,10.23,40.24,56.49
-4.27,-5.58,7.95,24.25,59.02,45.15
-6.27,-6.19,8.26,35.84,45.91,27.04
-6.79,-6.93,7.78,37.54,25.24,-4.97
-6.06,-7.02,7.77,43.4,8.84,-33.75
-4.87,-7.72,7.33,46.87,16.34,-46.86
-4.81,-7.82,7.85,55.29,-0.55,-43.93
-4.7,-7.38,7.58,49.31,-37.5,-31.01
-4.51,-6.62,7.76,49.98,-43.42,-32.59
-4,-5.6,8.8,47.06,-21.22,-45.52
-3.29,-5.37,8.59,34.62,9.88,-58.45
-2.96,-5.05,9.05,32.54,17.62,-52.17
-2.7,-4.66,9,23.4,-0.25,-35.15
-2.4,-3.95,9.27,15.41,-18.23,-26.01
-1.37,-3.56,9.22,9.43,-4.21,-32.59
-0.6,-2.64,9.52,2.6,24.33,-39.18
0.09,-5.56,11.62,41.69,54.39,-1.98
-1.09,-1.4,9.13,3.7,39.69,-4.12
-1.04,-1.12,8.85,0.65,39.27,-1.86
-1.14,-1.41,8.82,-1.36,36.22,-1.25
-1.3,-1.46,8.54,-2.46,31.52,-1.07
-1.47,-1.36,8.56,-0.81,28.9,-3.75
-1.64,-1.38,8.63,1.02,24.75,-8.81
-1.21,-1.41,9.1,-4.04,15.12,-11.5
-0.95,-1.24,9.07,-6.18,9.82,-9.91
-1.04,-0.33,9.27,-13.8,10.24,-9.24
-1.06,-0.9,8.98,-18.19,13.17,-6.43
-0.82,-1.19,8.52,-14.04,19.63,-8.2
-0.91,-1.49,8.9,-8.37,23.96,-11.68
-2.89,16.99,11.39,-89.35,-8.29,-24.6
-1.13,-1.73,8.58,-9.83,22.62,-5.76
-1.08,-1.5,8.68,-4.9,28.17,-4.24
-0.92,-1.33,8.86,-1.6,27.44,-3.45
-0.94,-1.16,9.05,-3.49,29.75,-3.81
-1.02,-1.13,9.05,-5.14,30.06,-5.21
-0.73,-1.26,8.95,-4.53,29.51,-5.46
-0.77,-1.43,8.91,-3.55,29.82,-5.21
-0.76,-1.37,8.65,-1.48,32.25,-3.57
-0.8,-1.26,8.76,-1.18,32.44,-1.92
-0.95,-1.3,8.78,-1.18,29.14,-1.92
-1.07,-1.21,8.9,-2.88,28.05,-2.1
-0.97,-1.23,9.03,-4.53,29.51,-4.6
-0.85,-1.27,9.1,-6.05,30.61,-5.7
-1,-1.33,8.91,-5.69,29.88,-4.97
-1.06,-1.3,8.76,-4.9,29.27,-5.15
-1.03,-1.31,8.82,-4.16,28.35,-4.06
-1.02,-1.29,8.92,-4.16,29.39,-4.79
-1.1,-1.15,9.08,-7.27,30.12,-6.13
-0.99,-1.44,8.93,-7.33,31.1,-5.58
-1.11,-1.46,8.89,-7.15,31.34,-5.34
-1.1,-1.55,8.71,-7.09,31.34,-4.67
-0.87,-1.45,8.73,-5.14,32.68,-3.14
-0.95,-1.47,8.87,-4.1,32.19,-2.53
-0.95,-1.44,8.81,-5.63,32.07,-1.74
-1.19,-1.74,8.67,-7.27,34.27,-1.19
-1.48,-1.85,8.78,-8.37,35.3,-0.09
-1.86,-2.3,9.02,-8.98,37.07,-1.56
-1.89,-2.58,9.46,-12.82,39.21,-2.53
-1.81,-3.07,9.88,-18.61,41.64,-0.4
-1.85,-3.45,10.08,-25.2,45.91,3.63
-2.09,-3.75,10.39,-34.65,54.27,6.49
-2.3,-4.12,10.1,-46.11,70.18,4.48
-2.89,-4.24,9.39,-58.49,88.78,0.09
-3.1,-5.22,8.27,-66.42,101.64,-6.74
-3.49,-5.61,7.17,-67.7,104.33,-11.92
-3.96,-6.09,6.55,-68.92,95.42,-17.59
-4.37,-6.78,6.52,-62.27,81.34,-21.07
-3.96,-6.79,6.9,-54.96,76.77,-25.46
-3.65,-6.91,7.1,-49.04,85.97,-25.46
-4.43,-6.68,7.46,-52.21,86.46,-31.56
-5.23,-7.04,7.25,-48.19,76.03,-42.1
-4.58,-7.33,7.08,-39.77,71.52,-50.03
-4.03,-7.44,7.09,-27.64,69.82,-52.53
-3.32,-7.13,7.19,-15.08,81.83,-47.29
-4.02,-6.52,7.45,-13.43,60.67,-36.86
-4.02,-6.35,6.96,-3.55,22.25,-25.03
-3.85,-6,6.82,3.89,9.08,-25.03
-3.13,-5.78,6.57,15.04,33.78,-36.25
-2.64,-4.61,7.67,31.51,80.79,-43.51
-3.86,-3.61,8.53,22.06,58.47,-38.26
-4.39,-3.87,7.76,19.13,-30.67,-12.84
-3.4,-2.97,6.92,33.28,-81.83,-2.35
-0.89,-1.45,7.8,52.73,32.01,-25.28
-1.85,-0.33,9.1,48.7,161.46,-39.79
-4.52,-0.19,7.57,30.84,168.35,-31.86
-4.63,-0.5,5.58,37.73,83.05,-13.39
-3.74,0.61,3.63,56.32,-16.34,1
-2.62,2.69,3.09,77.42,-63.17,-3.39
-0.02,4.91,4.45,110.65,-40.98,-23.81
2.33,6.21,7.05,130.35,10.73,-18.63
1.86,7.88,9.53,128.21,23.84,10.94
0.95,8.08,10.23,118.7,48.23,15.15
-0.35,6.9,10.96,100.29,76.52,-2.9
-1.45,5.32,11.93,71.51,57.99,-16.25
-2.08,4.78,12.81,17.3,-20.98,-16.62
-0.81,2.22,11,-20.38,-62.56,-17.1
0.11,0.48,9.01,-16.85,-13.6,-12.41
-0.65,1.12,8.58,-3.25,41.89,-10.52
-1.76,1.08,8.1,5.9,71.46,-7.23
-3.04,0.84,7.45,7.12,67.68,-2.47
-3.77,1.44,8.16,-3.49,41.83,1.25
-3.9,1.46,8.75,-14.41,10.91,1.74
-3.33,0.93,8.47,-16.48,3.11,-8.81
-2.29,0.08,8.11,-9.22,23.84,-15.09
-2.21,-0.46,8.38,7.85,47.38,-11.19
-3.12,-0.17,9.09,11.45,38.17,-3.32
-3.21,0.07,9.08,7.36,28.78,1.19
-3.11,0.55,9.7,-7.52,29.33,4.97
-2.94,0,9.14,-14.1,42.01,5.15
-3.16,-0.45,8.56,-11.3,49.39,3.02
-3.38,-0.33,8.34,-7.76,42.56,2.35
-3.46,-0.41,8.43,-2.15,39.75,-1.07
-3.46,-0.11,9.09,-3.25,40.97,-4.85
-3.13,-0.27,9.02,-5.99,43.96,-9
-2.94,-0.05,8.75,-9.22,47.93,-8.51
-2.97,-0.42,8.29,-10.14,45.12,-4.73
-3.12,-0.58,8.11,-7.7,37.56,-1.5
-3.25,-0.46,8.12,-5.57,29.14,-0.21
-3.43,-0.36,8.21,-4.35,24.75,-2.17
-3.34,-0.22,8.21,-3,29.02,-12.04
-2.77,-0.51,8.25,1.26,40.55,-18.02
-2.82,-0.21,8.44,-1.6,39.75,-12.9
-2.82,-0.12,8.46,-10.02,28.78,-4.73
-2.94,-0.52,7.77,-13,22.07,0.21
-2.96,-0.37,7.8,-8.8,24.45,-0.09
-3.22,-0.2,7.98,-6.54,26.46,-4.24
-3.13,-0.16,8.24,-6.05,24.02,-7.59
-2.85,-0.25,8.23,-5.02,23.35,-7.35
-2.63,0.13,8.43,-6.3,25.79,-3.69
-2.58,0.27,8.52,-9.1,25.36,2.04
-2.72,0.58,8.46,-12.09,21.64,3.99
-2.77,1.04,8.33,-15.14,21.1,4.3
-2.94,1.72,8.55,-16.66,22.62,0.7
-3.27,1.21,8.48,-19.29,17.56,-10.09
-3.56,1.08,9.4,-16.91,-3.9,-15.58
-3.67,2.87,10.33,-23.74,-31.95,-20.21
-2.34,3.93,11.03,-41.6,-56.77,-23.39
-0.3,4.13,10.68,-58.13,-46.34,-21.07
0.55,3.42,10.24,-67.94,-10.12,-3.81
-0.32,3.26,10.29,-71.72,22.86,9.91
-1.88,5.53,9.9,-81.6,21.46,27.41
-2.35,5.7,8.6,-97.27,6.65,21.07
-1.29,4.58,7.97,-95.87,2.74,20.88
-0.63,3.9,7.72,-83.8,16.58,33.44
-1.6,3.13,7.54,-74.1,25.85,51.31
-3.09,1.62,7.36,-72.21,17.13,45.88
-2.54,1.4,6.36,-63.55,-2.07,37.83
-1.27,0.8,6.78,-45.14,-21.28,45.76
-1.23,-0.03,8.36,-36.54,-42.62,66.8
-1.32,0.52,8.8,-34.1,-35.18,87.96
-1.66,-0.28,8.5,-35.99,5.91,76.31
-1.94,-0.84,7.7,-36.66,17.68,59.05
-1.34,-2.18,7.34,-29.22,-7.62,59.05
-1.34,-3.38,8.09,-18.31,-21.04,75.94
-2.44,-3.27,8.6,-13.74,10.91,67.1
-3.04,-3.69,7.7,-16.3,22.8,39.24
1.73,-10.9,7.51,15.69,12.09,-26.42
-0.9,-1.11,8.9,0.75,12.76,-23.68
-1.07,-1.53,8.88,6.97,8.5,-23.07
-0.84,-1.43,8.73,4.84,0.81,-20.02
-0.6,-1.46,8.73,4.78,-0.53,-15.2
-1.25,-1.19,8.65,2.65,-2.79,-23.62
-1.56,-1.28,9.02,4.9,-12.11,-34.04
-1.55,-0.99,8.99,0.02,-28.21,-43.62
-0.71,-0.6,8.81,-4,-26.75,-34.71
-0.41,-0.75,8.77,-8.27,-16.08,-23.37
-0.66,-1.07,8.97,114.84,4.47,-23.74
-1.34,-0.83,9.26,-13.39,-14.55,-19.41
-1.12,-0.91,8.96,-10.28,-10.47,-27.21
-0.55,-0.69,8.78,-2.72,-6.99,-24.47
-0.67,-1.12,8.94,1.36,-0.04,-15.81
-0.86,-1.09,8.67,2.77,2.89,-13.74
-1.22,-1.21,9,3.68,-4.43,-15.69
-1.12,-1.25,8.79,3.01,-8.58,-20.32
-1,-1.33,8.91,0.08,-6.93,-22.46
-1.1,-1.21,9.06,-1.62,-7.3,-22.82
-1.09,-1.76,9.02,-1.62,-8.15,-21.6
-1.1,-2.07,9.06,-0.22,-5.9,-18.25
-1.29,-2.1,9.35,2.28,-6.08,-19.53
-1.18,-2.41,9.62,0.45,-9.37,-19.1
-1.3,-2.66,9.94,-1.68,-11.5,-18.01
-1.26,-2.94,10.17,-6.56,-10.77,-19.9
-1.24,-3.3,10.2,-11.01,-2.97,-19.23
-1.6,-3.75,10.04,-16.93,12.03,-21.54
-1.88,-4.29,9.4,-20.04,18.68,-22.46
-2.06,-5.11,8.84,-18.27,19.59,-21.54
-2.24,-5.2,8.63,-17.17,10.02,-17.7
-2.11,-5.03,8.82,-14.73,1.42,-15.69
-1.36,-5.1,9.07,-14.31,6.79,-6.73
-1.37,-4.91,9.03,-13.7,16.48,2.36
-2.73,-4.63,9.06,-23.94,22.52,-4.84
-2.82,-5.31,8.19,-23.33,29.41,-22.34
-2.49,-4.97,8.08,-24.55,40.51,-37.4
-2.38,-5.03,7.77,-27.35,44.9,-34.17
-2.54,-5.06,7.91,-20.53,27.58,-24.53
-3.05,-4.29,8.38,-13.33,-4.07,-14.35
-3,-2.9,9.09,-20.16,-23.7,-23.68
-1.84,-2.32,9,-30.46,14.04,-41.79
-1.29,-1.89,8.75,-38.39,70.63,-54.47
-1.97,-2.18,8.16,-32.23,65.14,-38.07
-2.31,-2,6.95,-18.21,6.24,-11.3
-2.75,-1.26,7.03,-1.26,-61.32,7.05
-0.72,-0.24,7.01,9.23,-32.66,-8.5
-0.84,0.86,7.09,12.34,88.07,-48.92
0.25,0.38,6.77,16.06,160.44,-62.4
-3.17,1.59,6.08,31.3,70.87,-47.03
-3.87,1.45,5.73,53.44,-39.13,-37.21
-1.22,3.23,6.71,59.72,-77.97,-37.64
0.94,4.08,7.79,53.19,1.3,-40.26
-0.56,4.59,8.46,71.24,77.58,-24.47
-3.73,5.05,8.77,67.95,51.54,-19.59
-5.12,4.28,8.47,62.34,-28.21,-36.91
-2.71,2.84,8.99,65.94,-78.82,-54.41
-0.18,3.19,9.64,57.58,-68.46,-48.19
0.15,2.68,10.52,48.07,-51.87,-31.54
-1.05,1.31,11.66,22.58,-61.69,-27.52
-1.54,1.48,11.52,0.57,-64.07,-28.86
-1.42,0.99,9.95,-5.71,-39.19,-32.64
-1.23,0.8,9.23,-3.27,-12.18,-36.85
-1.27,0.4,8.57,-0.1,1.18,-29.1
-1.73,0.49,8.62,0.45,2.21,-20.39
-2.04,-0.11,8.73,5.69,-1.75,-14.78
-2.39,0.4,9.79,1.24,-8.52,-20.02
-2.36,0.13,10.08,-7.17,-2.54,-26.24
-2.24,-0.19,9.93,-7.35,4.41,-26.79
-2.16,-0.06,9.21,-5.46,10.87,-22.64
-2.04,-0.17,8.68,-6.62,12.46,-14.04
-2.38,-0.27,8.94,-6.38,10.75,-7.34
-2.91,-0.11,9.37,-10.4,12.64,-7.95
-3.19,-0.17,9.39,-12.84,6.79,-15.45
-2.85,0.03,8.91,-12.78,4.47,-23.19
-2.16,0.25,8.74,-10.28,4.59,-27.15
-1.87,0.32,8.39,-6.62,4.23,-26.85
-1.6,0.8,8.27,1.55,-2.05,-24.1
-1.1,1.45,8.19,0.69,-0.04,-19.35
-0.55,1.98,8.67,-5.53,8.31,-11.67
-0.84,2.02,8.98,-15.1,21.48,-1.97
-1.59,2.2,9.14,-18.76,24.65,-2.58
-1.95,2.24,8.97,-23.15,17.4,-6.18
-1.66,2.48,8.37,-10.04,10.75,-12.82
-1.37,2.24,7.76,5.33,10.81,-17.34
-1.14,2.98,8.58,-5.34,4.29,-9.96
-1.52,3.05,9.41,-15.34,3.01,4.07
-2.5,4.39,9.57,-25.95,23.74,6.75
-4.04,4.71,9.19,-28.76,41.97,-11.42
-4.55,3.86,8.42,-29.98,13.19,-43.07
-2.84,2.18,7.96,-29.79,-26.75,-48.92
-0.82,2,7.13,-25.65,-22.11,-30.02
-0.65,2.52,8.31,-17.84,13.25,-5.08
-3.33,2.95,8.93,-31.38,18.92,1.81
-3.91,2.65,7.72,-44.67,-5.65,-18.74
-2.68,0.66,7.31,-37.54,-18.64,-30.87
-1.88,-0.2,7.34,-23.64,-4.31,-28.07
-3.37,0.42,7.94,-35.83,-14.86,-12.52
-4.8,0.13,6.71,-43.76,-38.7,-13.56
-4.83,-0.66,5.44,-24.67,-62.6,-38.31
-2,-0.56,6.27,-17.23,-86.63,-53.31
1.84,-2.27,6.62,-20.16,-58.15,-36.06
1.67,-2.49,7.89,-6.5,-23.52,18.82
-2.53,-1.99,8.46,-7.29,-24.98,36.69
-4.07,-1.68,8.26,2.71,-42.42,20.29
-2.69,-2.57,8.11,14.78,-50.83,5.41
-2.13,-3.52,10.24,21.18,-66.08,13.33
-2.19,-3.47,11.18,27.4,-61.38,20.71
-3.23,-3.89,11.37,22.58,-63.64,19.55
-3.37,-3.35,10.72,21.24,-73.03,3.76
-2.08,-5.4,8.93,18.86,-63.7,-5.51
-2.2,-5.7,8.16,27.04,-54.98,-13.43
-2.74,-5.42,8.23,28.5,-56.5,-18.01
-3.31,-5.25,8.73,27.16,-61.26,-24.96
-3.58,-4.54,10.3,22.71,-74.74,-39.35
-1.61,-4.25,10.52,2.65,-71.08,-41.12
-0.69,-4.16,10.24,-9.67,-33.88,-37.21
-0.89,-4.03,9.3,-15.71,10.32,-38.25
-1.53,-3.62,10.08,-12.42,18.25,-39.23
-1.85,-3.04,10.31,-17.6,-14.98,-33.07
-1.09,-2.67,10.1,-23.15,-34.31,-31.48
0.11,-2.59,9.37,-21.01,-6.57,-27.76
-0.21,-2.39,9.43,-18.33,19.23,-24.71
-0.79,-1.86,8.84,-14.67,25.87,-16.91
-1.64,-2.12,8.36,-8.45,3.25,-13.98
-1.67,-2.24,7.96,-3.57,-19.8,-19.9
-0.62,-1.62,8.03,3.07,-22.48,-26.06
-0.07,-1.06,8.93,2.1,-6.99,-25.45
0.06,-1.03,8.96,-0.34,7.64,-19.04
-0.61,-1.02,8.98,-4.43,3.92,-10.26
-1.06,-1.17,8.82,-6.01,-17.42,-5.75
-0.85,-1.21,8.62,-4,-19.37,-9.47
-0.62,-1.37,8.71,-4.43,-9.49,-13.31
-0.68,-1.22,8.64,-6.07,4.1,-18.68
-0.74,-1.34,8.46,-8.45,16.54,-24.1
-1.02,-1.08,8.5,-6.38,6.48,-20.02
-1.45,-1.25,8.67,-2.6,-14.25,-18.49
-0.95,-0.88,9.15,-1.81,-23.09,-22.76
-0.35,-0.86,9.33,-5.16,-10.41,-25.57
-0.21,-0.86,8.94,-13.21,1.12,-24.78
-1.3,-5.23,8.43,13.5,0.69,-8.01
-1.05,-0.96,9.23,2.65,-0.53,-11.36
-1.18,-0.63,8.92,-2.05,-0.9,-16.85
-1.4,-1.14,8.85,-5.22,-3.33,-22.4
-1.09,-1.27,8.86,-8.7,-7.85,-23.8
-0.63,-1.48,9.11,-11.99,-7.24,-20.69
-0.67,-1.61,9.04,-6.2,-4.07,-17.89
-0.86,-1.18,9.05,-4.25,-14.13,-17.7
-0.99,-0.65,8.73,1.67,-22.3,-16.97
-0.2,7.93,9.55,-31.93,-29.43,-17.7
-1.1,-1.25,9,-7.29,-22.97,-12.52
-0.78,-1.4,9.14,-9,-8.76,-15.45
-0.88,-1.55,8.94,-6.62,-4.37,-14.35
-1.13,-1.58,8.88,-0.59,-5.1,-12.03
-1.3,-1.83,8.65,4.17,-6.02,-11.18
-1.42,-1.98,8.79,4.47,-7.72,-13.74
-1.34,-2.53,9.06,3.01,-7.24,-14.9
-1.47,-2.96,9.19,1.18,-4.92,-18.07
-1.52,-2.74,9.58,-2.66,-7.24,-19.29
-1.08,-3.08,10.27,-8.64,-9.25,-17.52
-0.98,-3.12,10.76,-17.23,-3.09,-16.91
-0.95,-3.55,10.55,-29.92,14.65,-14.84
-1.58,-4.18,9.99,-38.88,25.99,-18.8
-1.93,-4.71,8.95,-44.06,27.46,-21.6
-2.17,-5.45,8.81,-43.82,30.14,-20.63
-2.75,-5.57,8.94,-41.38,25.63,-18.25
-3.32,-5.64,9.12,-43.94,10.75,-18.56
-2.91,-5.47,8.52,-46.07,-2.48,-18.98
-2.45,-5.53,8.55,-50.53,3.92,-21.73
-2.99,-5.68,8.4,-51.38,9.04,-24.41
-3.18,-6.24,7.97,-46.26,-7.3,-24.47
-3.26,-5.91,7.57,-36.81,-34.49,-20.02
-1.94,-5.2,8.11,-26.74,-17.24,-25.2
-1.27,-3.56,9.35,-36.2,35.32,-38.25
-1.78,-3.47,9.25,-53.03,47.64,-45.26
-2.67,-3.82,7.72,-56.62,20.26,-42.15
-3.43,-3.63,6.54,-46.13,-28.33,-34.59
-1.41,-3.57,6.31,-19.67,-33.88,-38.62
0.69,-3,6.74,7.1,39.47,-43.07
-0.5,-1.25,8.78,9.05,78.19,-35.2
-2.35,-1,8.34,-7.11,50.63,-25.93
-3.11,-1.15,7.12,-19.73,-0.29,-17.82
-1.59,-1.84,5.53,5.63,-6.26,-35.75
0.21,-0.32,6.72,35.57,62.21,-41.6
-0.15,0.43,8.21,32.64,91.18,-17.64
-1.05,0.43,8.14,26.18,73.13,11.57
-3.53,1.58,6.4,18.13,16.18,15.83
-3.74,2,6.06,43.99,1.54,-11
-2.63,3,5.39,63.62,-0.9,-39.59
-0.48,2.81,7.03,78.19,9.78,-39.9
-0.7,3.47,8.65,86.85,19.1,-12.21
-1.99,3.8,8.91,89.6,24.65,-3.8
-2.87,3.03,7.92,83.99,25.69,-13.62
-3.32,3.27,7.73,78.99,21.42,-35.93
-3.11,3.06,8.5,72.71,-7.48,-46.79
-3.64,2.39,11.61,44.72,-89.74,-50.87
-2.03,1.97,14.37,9.41,-159.49,-58.37
1.47,1.35,14.09,-22.11,-132.97,-59.23
3.23,0.15,11.18,-32.9,-33.88,-37.4
1.57,-0.15,8.48,-24.98,39.23,-3.07
-1.78,0.67,7.24,-6.5,53.01,11.75
-4.29,1.37,7.74,-1.07,31.42,-2.7
-4.6,0.95,8.41,-0.89,-2.66,-22.15
-3.03,0.41,8.84,-2.23,-23.88,-32.28
-1.7,-0.1,9.68,-10.65,-38.76,-23.92
-0.79,-0.69,9.14,-4.67,-29.86,-15.75
-0.96,-0.1,9.36,3.44,-0.77,-8.01
-2.1,-0.06,9.69,4.9,22.82,-12.28
-3.03,-0.1,9.57,3.13,24.96,-20.69
-3.58,0.13,10.26,-7.42,-3.09,-25.32
-2.76,0.16,9.67,-14.79,-24.49,-29.78
-1.55,-0.09,9.63,-14.12,-15.41,-32.95
-0.92,-0.32,9.63,-9.12,1.67,-31.42
-1.11,0.11,9.85,1.24,9.47,-33.56
-1.49,1.32,10.29,5.27,-1.26,-39.96
-1.3,2.97,11.05,-24.31,-19.68,-35.08
-0.61,2.54,9.74,-35.34,-27.36,-26.73
-0.17,2.02,8.68,-12.6,-8.88,-29.9
-0.23,2.52,8.61,24.05,2.03,-31.42
-0.46,3.9,9.42,41.43,5.69,-34.1
-0.82,7.34,10.01,17.28,10.57,-31.6
0.04,5.92,8.49,-30.22,20.14,-16.6
-0.81,3.6,7.99,-57.05,4.47,0.71
-1.91,3.52,7.21,-60.22,-13.94,14
-2.22,3.15,7.1,-61.81,-19.49,2.72
-2.04,3.36,7,-63.82,-13.64,-11
-1.54,0.82,6.79,-69.79,-22.3,-10.32
-1.84,-0.22,7.36,-66.38,-39.55,12.18
-2.55,-0.42,7.23,-61.07,-40.71,25.1
-3.61,-0.34,7.67,-53.03,-46.2,16.08
-2.43,-0.68,7.26,-51.87,-62.97,6.38
-0.92,-2.07,7.1,-47.66,-67.6,15.35
-0.65,-3.04,7.42,-35.46,-56.63,32.18
-2.69,-3.21,8.1,-25.65,-36.32,33.88
-4.03,-2.51,8.28,-27.48,-35.1,26.69
-4.07,-2.45,7.96,-21.99,-54.98,6.44
-1.99,-4.18,6.53,-7.54,-49.37,-1.73
-1.29,-4.46,8.52,12.28,-57.3,-0.57
-1.24,-4.44,8.93,12.28,-39.92,11.44
-2.45,-4.65,8.86,21.3,-19.31,2.48
-3.13,-4.3,9.31,21.36,-28.09,-2.95
-2.88,-4.71,9.04,27.16,-40.41,-11.85
-1.91,-4.87,8.53,28.38,-47.36,-13.19
-1.45,-5.58,8.14,40.82,-41.14,-16.36
-1.3,-5.59,8.5,46.36,-38.15,-16.12
-1.48,-4.89,9.58,48.86,-47.24,-12.82
-1.46,-5.32,9.01,35.14,-53.03,-9.23
-1.34,-5.77,8.89,38.93,-44.19,-15.26
-0.96,-5.34,9.53,35.14,-26.57,-17.76
-1.11,-4.64,9.71,24.29,-8.03,-11.91
-1.71,-4.57,9.83,18.93,-1.57,-12.34
-1.92,-4.34,9.73,11.61,-4.92,-14.65
-1.75,-3.99,9.82,3.74,-4.74,-16.91
-1.52,-3.47,9.61,-4.55,-5.65,-19.9
-1.11,-3.47,9.33,-6.87,-7.91,-21.48
-0.47,-2.76,8.82,-9.18,-12.91,-15.99
-0.68,-2.56,8.52,-2.48,-8.46,-14.35
-1.18,-1.72,9,-5.83,-6.69,-16.67
-0.9,-1.73,8.58,-9.06,-4.55,-17.52
-1.21,-2.08,8.11,-6.68,-11.75,-13.86
-1.23,-1.85,8.19,-1.5,-20.35,-11.91
-0.97,-1.73,8.27,-0.28,-13.76,-13.13
-1.07,-1.33,8.68,-1.2,-0.9,-18.86
-1.54,-1.23,9.05,-3.39,1.36,-24.9
-1.17,-1.23,9.16,-6.2,-10.1,-28.19
-0.42,-1.53,8.97,-8.45,-8.82,-28.37
0.07,-1.46,9.03,-8.82,2.46,-27.46
0.08,-1.34,9.25,-10.22,6.79,-24.04
-0.26,-1.2,9.39,-10.34,4.17,-22.64
-0.6,-1.54,9.3,-9.73,-5.22,-19.47
-0.58,-1.28,8.81,-6.75,-5.1,-24.41
-0.19,-1.27,9.08,-7.11,-0.71,-27.7
0.28,-1.42,8.74,-9.43,9.59,-29.35
0.43,-1.1,8.61,-5.65,13.92,-24.78
-0.42,-1.36,8.61,-6.07,9.53,-19.17
-1.13,-1.07,8.53,-4.85,-3.15,-21.36
-0.8,-1.45,8.3,-2.54,-10.35,-25.87
-0.19,-1.34,8.24,-1.5,-0.71,-27.09
-0.18,-1.25,8.54,1.06,5.57,-23.74
-0.59,-1.18,9.03,0.15,6.6,-20.81
-1.68,-1.8,9.27,4.29,7.03,-22.76
-1.46,-1.35,8.97,2.71,1.48,-21.91
-1.32,-1.38,8.85,0.45,-0.77,-22.34
-1.24,-1.47,8.74,-1.75,-3.15,-20.45
-1.26,-1.44,8.71,-3.33,-8.09,-19.71
-1.4,-1.54,8.67,-3.57,-11.57,-22.52
-1.28,-1.57,8.82,-3.33,-16.14,-24.47
-1.16,-1.06,9.08,-8.21,-20.65,-28.13
-1.08,-1.19,9.11,-9.79,-21.75,-26.97
-1.16,-0.96,9.18,-8.21,-19.07,-25.51
-1.67,-1.5,11,2.71,-11.44,-17.34
-1.15,-1.56,8.81,-8.03,-12.18,-18.31
-1.33,-1.72,8.95,-5.89,-10.53,-21.85
-1.34,-1.47,8.84,-5.34,-9.43,-23.19
-1.12,-1.46,8.82,-0.89,-6.32,-22.09
-1.23,-1.56,9.04,0.33,-5.16,-21.54
-1.19,-1.58,8.83,1.12,-6.26,-22.09
-1.19,-1.63,8.86,-0.4,-4.55,-22.52
-1.14,-1.66,8.53,-0.59,-1.2,-25.02
-1.35,-1.92,8.64,1.85,-5.65,-23.86
-1.2,-2.2,8.58,1.91,-8.7,-23.07
-1.32,-2.65,8.74,2.89,-6.69,-23.68
-1.28,-3.15,8.79,2.4,-2.85,-24.17
-1.45,-3.33,9.46,0.57,-0.71,-21.24
-2.13,-3.48,10.15,-7.84,1.67,-18.01
-2.67,-3.88,10.42,-21.62,3.25,-20.93
-2.49,-5.02,10.37,-36.62,11.06,-28.62
-2.01,-5.75,9.87,-46.87,26.97,-30.69
-2,-6.03,8.98,-53.76,41.97,-28.43
-2.72,-6.31,8.59,-55.28,50.2,-24.65
-3.52,-6.31,8.44,-53.76,44.23,-24.1
-3.32,-6.32,8.23,-54.67,39.53,-30.57
-2.69,-6.43,7.73,-58.33,43.19,-36.48
-2.49,-7.18,7.03,-54.67,47.7,-35.32
-2.83,-7.82,6.21,-43.03,33.98,-25.75
-3.44,-7.95,5.97,-22.17,14.65,-13.49
-4.4,-6.75,6.87,-10.4,0.14,-24.17
-4.1,-5.45,8.07,-15.77,4.65,-40.81
-3.52,-6.08,8.03,-20.04,1.18,-48.01
-2.81,-6.11,7.4,-15.89,-7.97,-37.58
-1.35,-5.64,7.1,-2.54,-10.65,-19.35
-1.21,-5.07,7.53,3.86,20.99,-5.81
-4.35,-2.23,9.24,-13.03,8.62,-19.9
-4.85,-1.72,8.92,-37.96,-19.8,-58.62
-2.26,-2.47,8.17,-47.96,-16.08,-72.21
-0.84,-2.97,7.47,-38.21,1.12,-47.64
-1.19,-2.97,6.27,-19.61,10.2,-15.57
-1.35,-2.07,5.75,0.33,-6.69,14.13
-2.44,0.38,6.2,10.69,-27.66,19.55
-1.79,1.62,4.72,10.94,2.89,-7.46
-2.71,1.93,3.04,35.14,56.97,-18.62
-1.54,2.22,4.08,75.45,58.31,-8.92
-1.95,2.91,5.7,95.39,-31.08,-14.17
1.07,5.25,6.1,114.41,-58.64,-33.43
2.74,6.49,8.18,133.74,15.14,-23.68
1.1,7.84,12.15,141.79,70.26,20.22
-4.04,7.27,13.66,111.49,26.79,-0.14
-4.44,4.41,14.01,58.32,-66.14,-60.93
-0.95,2.27,12.5,10.33,-110.04,-91.3
2.36,0.77,10.99,-5.59,-85.71,-73.74
3.05,-0.58,9.55,6.49,-15.29,-40.51
0.28,0.17,9.6,22.34,40.51,-10.45
-2.99,1.43,9.95,6.18,38.62,4
-4.75,0.92,8.59,-10.1,13.49,-8.37
-4.25,0.51,8.13,-7.72,-1.26,-23.86
-3.46,-0.03,7.98,0.45,-8.88,-35.93
-2.43,-0.28,8.37,10.45,-9.8,-35.63
-2.63,-0.4,8.79,14.23,-12.54,-24.23
-2.94,0.23,9.35,7.71,-10.22,-20.08
-3.18,-0.17,9.42,0.94,-0.53,-20.32
-3.16,-0.47,9.35,-3.45,6.18,-22.64
-3.46,-0.91,9.17,-0.22,9.53,-24.47
-3.76,-0.37,9.53,-1.68,-7.85,-28.25
-3.35,-0.09,9.45,-3.27,-10.96,-35.2
-2.37,-0.27,9.29,0.21,-1.08,-38.98
-1.8,-0.22,9.53,3.62,11.3,-34.23
-1.99,-0.2,9.8,4.23,14.17,-29.41
-2.68,0.63,10.29,-0.46,1.3,-32.95
-2.6,1.11,10.19,-4.79,-19.25,-41.91
-1.87,1.62,9.5,-0.65,-34,-54.04
-0.55,1.21,8.26,9.47,-33.82,-59.78
0.21,1.24,8.48,23.86,-27.05,-52.76
0.09,2.88,9.09,28.93,-28.09,-33.56
-0.64,4.05,9.28,27.1,-36.44,-17.21
-0.95,4.77,9.71,13.19,-30.83,-27.52
-0.3,5.35,9.7,-18.03,-14.31,-35.57
0.27,4.91,9.2,-41.74,14.35,-21.54
-1.34,5.81,9.27,-62.42,30.26,-2.95
-2.72,5.47,9.03,-80.83,-4.37,-0.75
-1.58,4.93,7.98,-92.35,-47.66,-2.58
0.29,3.05,7.88,-85.95,-45.77,4.19
0.2,2.86,8.41,-86.99,-4.8,9.37
-2.01,2.62,8.3,-94.49,3.19,23.82
-3.71,2.11,7.35,-94.31,-33.33,33.03
-2.28,-0.07,5.8,-74.79,-70.1,43.33
-0.92,-0.76,5.92,-54.79,-57.85,47.97
-2.03,-1.04,7.05,-46.13,-43.76,57.97
-3.6,-0.83,8.02,-44.43,-53.27,60.16
-3.64,-2.3,6.75,-37.6,-49.43,44.43
-2.8,-3.46,6,-20.71,-52.3,32.11
-2.18,-3.69,6.65,-13.76,-66.99,29.61
-2.34,-4.69,7.09,-6.62,-68.82,35.1
-3.07,-4.9,6.97,-2.6,-54.68,27.18
-3.26,-6.22,6.65,13.44,-36.38,1.99
-3.07,-6.45,7.09,36.36,-49.92,-13.13
-2.47,-7.32,8.04,51.18,-71.63,-23.98
-0.9,-7.66,8.53,55.45,-64.67,-18.37
-1.23,-7.93,9.13,62.28,-33.15,-28.07
-1.93,-7.45,9.54,56.12,-14,-32.76
-2.79,-7.25,9.75,47.58,-24.92,-33.43
-2.85,-7.24,9.22,40.69,-42.6,-32.52
-1.88,-6.51,9.71,37.34,-38.94,-34.71
-0.46,-6.18,10.11,28.38,-1.2,-30.57
-1.28,-5.58,10.67,13.86,20.02,-18.37
-2.85,-5.23,10.37,-0.1,0.75,-7.64
-3.43,-4.76,10.2,-4.25,-25.41,-12.95
-2.52,-4.11,9.93,-6.68,-21.93,-29.47
-1.34,-3.48,10.06,-11.01,2.7,-39.96
-0.62,-2.68,9.98,-17.17,24.29,-37.34
-0.93,-2.32,9.09,-27.42,22.89,-26.91
-0.97,-2.01,8.09,-30.65,10.32,-22.89
-0.83,-2.14,7.35,-25.28,-4.68,-17.64
-0.59,-1.79,7.24,-11.2,-6.69,-18.56
-0.44,-1.59,8.04,-2.6,6.73,-25.14
0.05,-1.26,8.65,-0.46,21.18,-26.73
-0.24,-1.09,8.74,-3.82,25.93,-20.26
-0.98,-1.5,8.65,-6.5,9.23,-15.57
-1.19,-1.59,8.52,-3.76,-15.35,-14.1
-0.8,-1.61,8.52,-3.27,-22.97,-18.68
-0.43,-1.61,8.51,-2.29,-11.14,-23.62
-0.42,-1.38,8.58,-1.75,3.56,-21.67
-0.84,-1.46,8.62,-0.89,-1.99,-15.99
-1.21,-1.5,8.62,1.55,-18.76,-13.43
-0.6,-1.36,8.73,6.61,-19.19,-15.75
-0.67,-1.08,9.12,2.77,-7.54,-21.48
-0.76,-1.16,9.27,0.63,-5.53,-23.25
-0.57,-1.3,9.45,0.21,-11.38,-19.65
-0.77,-1.65,8.95,0.57,-12.54,-17.21
-0.95,-1.34,9.08,2.77,-10.53,-16.97
-1.12,-1.36,9.08,-0.16,-13.09,-19.59
-1.22,-1.28,7.09,-4.37,-2.54,-26.42
-1.5,-1.9,8.45,-2.9,0.63,-20.39
-1.6,-1.65,8.56,-2.42,-4.19,-19.71
-1.56,-1.63,8.62,-2.78,-6.57,-21.97
-1.39,-1.74,8.81,-1.26,-6.02,-25.2
-1.17,-1.95,9.1,-1.5,-5.16,-28.37
-0.98,-1.94,9.08,-6.32,-6.38,-26.18
-1,-2.22,9.02,0.94,-7.36,-25.2
-1.33,-1.71,8.73,3.74,-10.47,-26.36
-1.62,-1.46,8.78,3.56,-15.04,-24.29
-1.73,-1.35,8.68,3.25,-18.7,-18.86
-1.43,-1.63,8.59,-0.46,-18.15,-20.26
-1.31,-2,8.49,-2.96,-9.68,-24.23
-1.46,-2.65,8.63,1.67,-5.59,-21.73
-1.83,-3.15,8.57,5.45,-8.52,-19.96
-1.9,-3.41,8.41,11,-9.55,-22.52
-2.22,-3.8,8.76,12.52,-6.87,-25.87
-2.35,-4.01,8.99,12.64,-4.68,-26.24
-2.54,-4.87,9.65,7.4,-1.08,-25.32
-2.88,-5.49,9.96,-7.78,6.79,-23.19
-3.37,-6.3,9.33,-21.2,17.58,-26.73
-3.59,-6.74,8.86,-24.61,36.73,-38.74
-3.81,-6.74,8.76,-33.51,49.9,-46.73
-3.95,-7.15,8.47,-41.56,49.65,-52.03
-4.02,-7.44,8.29,-46.13,32.58,-51.6
-3.23,-7.56,7.84,-44.18,21.85,-48.49
-2.82,-7.79,7.91,-35.53,22.15,-41.48
-3.21,-7.57,8.32,-29.85,8.86,-30.75
-3.33,-6.94,8.53,-31.5,-13.88,-30.51
-2.06,-5.95,9,-33.39,11.97,-46.73
-1.53,-5.36,9.27,-43.33,57.7,-59.04
-2.51,-5.25,8.53,-51.56,63.01,-55.32
-3.65,-5.6,7.24,-49.06,11.6,-33.74
-3.11,-5.34,6.21,-19.85,-42.85,-16.06
-1.58,-3.86,6.52,2.58,-26.75,-16.18
-2.22,-0.83,8.75,-14.92,36.67,-38.01
-2.88,-1.36,8.02,-38.94,62.52,-58.92
-3.49,-1.58,6.29,-35.34,34.17,-35.93
-4.2,-2.15,5.16,-15.53,-26.57,-4.84
-3.96,-1.01,4.29,24.05,-73.76,-0.57
-2.75,0.03,7.35,73.44,-13.39,-35.81
-0.69,2.95,6.99,74.78,72.82,-78.25
-2.43,4.27,7.93,63.07,53.62,-69.17
-2.13,4.95,7.55,74.96,-40.16,-48.8
-0.07,5.36,6.88,97.64,-70.65,-39.96
1.43,5.72,8.12,98.07,-29.43,-49.71
2.09,6.25,9.28,110.88,54.71,-46.48
0.29,5.3,10.41,101.24,89.16,-23.07
-2.36,4.36,11.95,83.8,45.99,-6.48
-3.4,3.23,12.73,57.58,-19.49,-17.89
-2.3,2.5,12.35,23.68,-47.6,-39.59
-0.53,1.08,10.75,8.86,-24,-38.07
-0.58,1.14,9.67,5.63,10.02,-18.62
-1.88,1.21,9.16,3.62,21.91,-0.57
-3.42,1.41,8.99,-1.62,2.03,-0.75
-3.13,1.26,8.24,2.65,-11.5,-13.25
-2.33,1.09,8.17,5.75,-6.63,-18.98
-2.42,0.88,8.09,10.27,-4.31,-24.84
-2.4,0.94,8.3,13.19,-10.77,-23.8
-2.18,1.14,8.6,16.97,-9.43,-18.37
-1.92,1.32,9.21,15.51,-7.11,-16.06
-2.17,1.5,9.72,14.05,-11.5,-18.25
-2.39,1.9,10.24,14.6,-25.96,-20.51
-1.74,1.19,9.76,9.6,-28.7,-24.23
-1.28,2.11,10.36,9.54,-5.16,-25.39
-1.69,3.12,11.23,-1.62,7.52,-16.97
-2.59,4.23,11.62,-21.14,-14.86,-11.79
-3.06,4.25,10.43,-44.73,-43.76,-18.98
-2.64,2.63,8.92,-46.81,-49.8,-44.53
-0.88,2.63,8.42,-37.96,-10.83,-57.52
-0.89,4.01,9.34,-31.81,9.04,-42.03
-2.32,4.52,9.99,-51.01,-26.02,-20.39
-1.64,3.76,8.59,-64,-78.58,-15.32
1.48,1.74,7.74,-62.48,-47.78,-27.28
2.57,1.95,8.29,-58.27,33.07,-9.96
-0.74,3.29,9.85,-70.65,46.3,14
-4.69,4.63,9.98,-86.26,-35.16,25.53
-3.68,2.74,8.22,-88.82,-99.86,22.91
0.49,-0.39,7.16,-79.61,-68.58,21.5
1.11,-0.59,7.41,-75.65,-13.64,41.63
-1.68,0.15,7.62,-71.99,-7.91,57.6
-4.55,-0.31,7.7,-72.35,-49.13,55.53
-4.5,-1.22,6.75,-67.42,-69.19,41.14
-2.62,-3.21,5.41,-56.26,-38.88,16.63
-1.7,-3.58,6.03,-38.94,-30.16,15.29
-1.39,-3.75,6.55,-20.28,-42.42,26.81
-2.09,-3.34,6.95,-18.09,-49.31,36.57
-2.99,-4.14,6.79,-18.21,-34.92,23.33
-2.98,-4.72,6.04,-3.82,-29.8,9.74
-2.83,-5.61,5.92,14.66,-45.89,3.21
-2.55,-6.24,5.81,36.06,-79.74,0.9
-2.16,-6.18,6.92,63.07,-90.89,-8.62
-1.9,-6.55,7.34,63.44,-78.52,-6.85
-2.53,-6.74,7.83,53.13,-73.58,-15.14
-2.79,-7.55,7.23,57.89,-83.94,-18.62
-2.92,-7.16,8.71,68.38,-105.1,-17.4
-2.6,-7.27,9.53,61.12,-111.99,-23.8
-1.49,-6.86,10.44,52.77,-85.04,-39.35
-0.67,-6.69,11.18,43.25,-51.93,-43.25
-0.12,-6.19,11.58,26,-33.58,-29.29
0.03,-5.76,10.66,5.02,-15.96,-7.89
-0.03,-6.19,10.66,-3.57,17.95,0.04
-0.94,-4.58,9.43,-11.44,42.15,-0.81
-1.83,-3.61,9.89,-8.88,56.54,-11.24
-1.77,-3.16,9.86,-15.77,46.24,-19.65
-1.44,-2.68,9.65,-13.45,17.21,-24.29
-0.05,-2.15,8.93,-12.48,10.63,-25.57
0.45,-1.79,8.69,-10.28,22.4,-22.76
-0.25,-1.34,8.46,-8.94,21.54,-20.2
-0.74,-1.31,7.98,-8.09,1.42,-20.32
-0.55,-1.27,8.1,-5.16,-15.59,-21.85
0.11,-1.49,7.66,-3.21,-6.69,-27.46
0.45,-1.4,8.02,3.44,5.51,-27.21
0.21,-1.64,8.62,5.82,8.86,-22.21
-0.31,-1.66,8.71,2.16,2.52,-16.06
-0.84,-1.23,8.79,1.61,-7.54,-15.87
-0.42,-1.51,9.25,-3.27,-12.24,-20.69
0.31,-1.51,9.35,-4.18,-4,-21.3
0.35,-1.73,9.23,-3.09,5.02,-19.17
-0.17,-1.43,9.4,-3.82,1.73,-17.4
-0.58,-1.36,9.42,-5.4,-7.36,-20.87
-0.33,-1.7,9.13,-5.53,-7.79,-22.28
-0.03,-1.37,9.33,-2.29,-2.72,-21.79
-0.02,-1.5,9.02,-1.01,6.18,-20.99
-0.5,-1.16,9.07,-1.5,5.69,-18.25
-1.01,-1.1,9.16,-7.72,-3.82,-21.85
-0.73,-1.6,8.56,-7.23,-1.87,-26.6
-0.57,-1.67,8.45,-4.18,2.7,-26.36
-0.55,-1.68,8.57,-1.5,1.54,-23.74
-0.62,-1.47,8.77,1.73,-2.24,-22.21
-0.59,-1.38,8.94,-1.26,-3.21,-24.59
-0.45,-1.55,8.9,0.33,-0.9,-24.78
-0.36,-1.55,9.04,-0.34,-2.85,-24.65
-0.31,-1.5,9.14,1.55,-6.93,-23.01
-0.09,-1.12,9.35,-1.2,-3.15,-23.74
0.1,-1.57,8.96,-4.18,6.18,-23.01
-0.18,-1.4,8.99,-3.94,12.89,-21.3
-0.75,-1.53,8.94,-6.01,4.35,-20.57
-0.79,-1.73,8.6,-2.17,-7.6,-19.59
-0.59,-1.62,8.42,-1.2,-9.8,-21.36
-0.25,-7.12,7.16,15.94,13.25,-21.91
-1.26,-1.95,8.7,5.88,7.95,-23.07
-1.59,-1.72,8.75,4.84,-2.24,-26.42
-1.61,-1.62,8.75,4.84,-9.07,-30.87
-1.15,-1.54,8.99,-0.53,-11.38,-32.58
-0.87,-1.59,9.04,-8.82,-11.69,-31.18
-0.88,-1.65,8.97,-11.2,-15.1,-24.29
-0.7,-1.8,8.8,-15.04,-20.65,-16.54
-0.84,-1.46,8.63,-11.87,-16.87,-11.48
-1.31,-1.29,8.82,-11.56,-11.63,-19.47
-2.85,-2.65,10.9,0.33,-13.82,-18.74
-1.46,-2.04,8.82,-5.04,-14.07,-27.28
-0.96,-1.98,8.87,0.88,-11.44,-23.8
-0.96,-1.95,8.51,5.21,-7.97,-22.15
-0.91,-2.02,8.34,9.6,-0.71,-19.35
-1.16,-1.67,8.61,10.21,2.46,-20.26
-1.35,-1.28,8.82,3.74,-1.2,-23.98
-1.37,-1.66,8.91,-2.66,-7.3,-24.59
-1.16,-1.87,8.92,-2.6,-11.44,-23.8
-1.16,-2.07,8.89,-0.77,-7.48,-24.59
-1.17,-2.23,9.03,-0.95,-3.58,-24.35
-1.31,-2.69,9.27,0.15,-4.31,-24.04
-1.57,-3.3,9.22,-2.42,-3.52,-24.59
-2.12,-3.7,9.42,-5.83,-4.19,-23.25
-2.59,-4,9.55,-11.01,3.13,-22.21
-3.07,-4.68,9.71,-14.12,16.48,-24.84
-3.62,-5.14,9.9,-24.98,19.29,-30.81
-3.63,-6.31,9.21,-35.71,29.84,-34.71
-3.8,-7.1,8.26,-36.87,44.47,-38.86
-3.95,-8.05,7.57,-36.14,62.82,-44.78
-4.05,-7.94,7.77,-37.05,67.15,-42.7
-3.97,-8.21,7.7,-37.72,63.68,-39.23
-4.03,-8.6,7.43,-34,50.2,-35.99
-4.08,-8.12,7.63,-34.49,30.87,-36.54
-3.43,-7.92,7.45,-41.81,14.35,-42.21
-2.71,-7.84,7.24,-41.5,14.47,-41.36
-2.18,-7.95,7.43,-33.51,32.03,-32.64
-2.88,-7.69,7.19,-23.76,21.36,-18.25
-3.7,-6.59,7.23,-17.84,-16.32,-9.04
-3.73,-4.91,6.91,-23.64,-28.46,-36.54
-1.88,-4.58,6.53,-22.66,29.35,-68.86
-1.81,-4.4,6.84,-20.4,70.99,-67.03
-3.55,-4.68,5.87,-9.85,35.26,-35.2
-4.64,-4.71,4.31,5.82,-38.64,-4.53
-4.92,-3.4,3.39,41.79,-107.91,2.48
-3.04,0.75,5.38,65.57,-68.21,-56.79
0.12,2.38,7.09,61.12,76.12,-104.59
-1,2.88,8.05,56.61,104.16,-85.08
-2.29,4.88,5.75,51.97,4.1,-49.78
-0.71,5.3,5.67,88.01,-80.89,-36.67
0.42,7.45,5.98,122.95,-57.78,-51.3
2.8,9.24,8.64,133.68,35.32,-40.69
1.25,9.54,11.53,138.31,72.15,-3.62
-2.43,9.32,13.68,110.57,29.53,2.05
-4.04,6.7,13.63,62.83,-40.1,-32.28
-2.28,4.73,13.09,31.97,-91.56,-64.53
1.1,1.98,11.91,1,-97.05,-65.38
2.7,0.19,10.83,-13.82,-65.35,-32.64
1.24,0.17,10.49,-9.06,-23.03,-4.9
-1,1.58,9.28,-9.31,19.1,0.59
-2.58,1.51,7.81,-13.64,34.78,-9.53
-2.79,0.62,6.23,-4.98,33.8,-17.76
-3.24,0.39,6.38,9.84,14.65,-19.84
-3.4,0.68,7.2,15.75,-17.97,-23.07
-2.31,0.92,8.69,7.95,-29.98,-26.24
-1.13,0.03,8.93,4.78,-10.22,-24.04
-0.98,-0.28,8.98,6.55,14.17,-11.73
-1.83,-0.43,8.92,8.32,24.53,-1.97
-3.67,0.14,9.16,5.57,12.03,-5.14
-4.14,0.04,8.73,3.86,-6.5,-20.39
-3.27,0.14,8.56,3.25,-12.42,-28.31
-2.48,-0.52,8.23,5.69,-10.29,-26.18
-2.13,-0.22,8.84,8.99,-4.92,-21.6
-1.93,0.21,9.87,3.5,0.45,-15.14
-2.06,0.1,9.7,-1.87,0.14,-13.01
-2.04,0.11,9.5,-2.35,5.39,-14.47
-2.55,0.54,9.4,-3.27,6.97,-15.69
-2.46,0.59,9.01,-1.81,8.92,-22.21
-2.51,0.82,8.94,5.27,7.09,-26.12
-2.94,1.53,9.48,7.58,-5.83,-31.79
-2.99,1.98,9.87,6.06,-23.82,-40.93
-2.36,2.8,10.18,6.24,-40.65,-49.29
-1.3,2.86,10.29,2.16,-50.16,-46.6
-0.73,3.48,10.63,-5.28,-49.98,-41.24
-1,5.68,11.43,-24.73,-43.52,-28.92
-1.62,7.04,11.23,-49.73,-48.27,-21.54
-1.39,6.32,10.02,-71.2,-44.49,-19.78
0.12,5.58,8.06,-72.78,-17.54,-29.23
0.96,4.81,8.64,-68.09,9.59,-27.76
0.7,5.95,9.5,-89.24,-16.32,8.82
-0.94,6.01,8.45,-96.07,-31.08,34.92
-2.13,4.74,7.12,-101.13,-20.29,25.89
-1.31,2.15,7.05,-95.77,-16.57,11.32
0.2,0.89,6.66,-95.04,-31.69,27.91
-0.88,0.53,6.53,-73.09,-67.6,52.85
-2.79,-0.48,7.38,-49.49,-92.05,63.7
-2.56,-0.9,6.93,-55.65,-62.11,40.1
-2.01,-2.64,6.69,-67.72,-19.92,24.55
-2.14,-3.65,5.82,-42.66,-25.89,15.1
-1.85,-5.43,5.62,-32.84,-39.86,8.7
-1.39,-5.52,5.98,-13.88,-67.6,7.11
-0.82,-6.04,5.02,-1.38,-52.54,-3.25
-0.67,-4.78,6.45,17.04,-49.13,-8.86
-0.8,-4.8,7.29,21.24,-57.54,-8.5
-1.17,-5,7.93,25.45,-50.83,1.02
-2.36,-4.61,8.26,27.58,-51.44,-8.25
-1.69,-4.22,8.98,26.3,-66.08,-17.82
-0.73,-4.27,9.56,20.69,-81.87,-16.97
0.17,-4.82,9.23,20.21,-61.99,-16.85
0.28,-5.1,9.3,28.13,-33.7,-16.54
-0.68,-5.13,9.34,28.5,-27.91,-16.91
-0.97,-5.78,9.32,33.13,-29.25,-14.35
-2.03,-6.05,9.55,36.3,-32.18,-18.43
-1.89,-6.14,9.25,31,-18.27,-31.42
-2.2,-6.24,9.98,31.49,-9.92,-36.48
-2.29,-6.56,9.95,27.52,-34.25,-33.56
-1.44,-6.64,9.18,27.22,-42.66,-26.97
-1.14,-6,9.32,20.94,-20.65,-29.17
-1.46,-5.51,9.85,6.97,-7.85,-32.76
-1.28,-5.16,9.78,-0.95,-9.55,-31.91
-0.51,-4.99,9.14,-6.93,-3.21,-29.59
-0.42,-3.74,9.28,-3.21,0.63,-26.12
-0.38,-1.67,9.88,-13.82,4.1,-34.53
0.37,-1.3,9.74,-20.16,6.24,-44.96
1.25,-1.72,8.83,-21.87,8.74,-36.67
0.88,-1.67,8.25,-14.49,-3.52,-23.49
0.94,-1.74,7.63,-3.33,6.91,-25.51
0.5,-1.43,8.2,1.73,9.29,-27.03
0.27,-1.4,8.26,-2.9,-1.93,-22.15
0.14,-1.73,7.96,2.34,-7.72,-22.21
0.25,-1.58,8.47,7.83,-6.63,-22.95
0.43,-1.45,8.73,4.47,-2.91,-26.36
0.54,-1.56,8.73,-0.59,1.79,-29.04
0.63,-1.8,8.41,0.08,1.36,-27.4
0.4,-1.89,8.41,5.15,-0.59,-25.2
0.33,-1.92,8.72,10.27,-5.41,-21.48
0.33,-1.57,9.05,9.17,-11.63,-18.01
0.48,-1.46,9.36,5.69,-16.32,-18.43
0.89,-1.53,9.53,2.22,-3.82,-20.32
0.62,-1.49,9.46,-1.14,9.59,-20.93
-1.17,-5.39,7.66,8.86,27.46,-27.46
-1.4,-2.03,8.91,5.08,23.86,-30.14
-1.45,-2.25,8.66,4.35,18.43,-27.95
-1.55,-2.3,8.57,6.67,14.53,-23.49
-1.53,-2.38,8.84,7.04,11.48,-18.13
-1.69,-1.94,9.25,-4.98,-0.16,-12.46
-1.37,-2.62,8.62,-5.77,-2.18,-8.68
-2.84,-1.24,9.22,-12.84,-11.26,-14.65
-3.03,-1.45,9.2,-26.87,-22.85,-31.73
-1.94,-2.42,8.93,-27.17,-20.22,-41.3
0.87,-19.6,3.46,-84.24,-34.98,-51.18
-1.83,-3.66,8.93,-13.7,-5.65,-23.31
-1.95,-3.71,8.4,-3.57,-5.22,-19.53
-2.48,-3.63,8.31,1.91,-5.29,-23.56
-2.9,-3.54,8.16,-3.27,3.62,-32.15
-2.66,-4.57,7.76,-9.73,13.07,-35.26
-2.27,-6,6.79,-11.2,22.52,-35.45
-2.24,-7.12,6.47,-11.32,37.88,-33.01
-2.66,-7.7,6.52,-2.42,44.47,-19.41
-3.86,-7.65,7.33,8.68,21.12,-6
-4.3,-6.97,8.83,3.19,-7.97,-11.48
-3.26,-6.8,9.86,-17.11,-4.98,-30.26
-2.77,-6.98,10.39,-35.77,0.51,-37.34
-2.33,-7.37,9.94,-39.98,-10.96,-29.41
-2.12,-7.81,9.65,-34.12,-5.96,-18.56
-2.03,-7.18,10.6,-27.23,3.92,-18.98
-1.87,-5.8,11.86,-33.51,28.37,-27.52
-2.72,-4.48,12.08,-61.32,31.79,-33.43
-2.99,-5.14,10.21,-82.48,33.62,-40.08
-4.03,-6,8.02,-67.05,8.98,-29.53
-4.49,-6.64,6.54,-30.95,-34.49,-20.69
-2.7,-5.2,5.68,21.61,-12.6,-29.78
-2.58,-1.85,7.62,35.82,57.88,-38.56
-4.37,-0.25,8.77,1.55,52.82,-48.62
-4.54,0.14,6.75,-23.57,9.59,-44.35
-4.36,0.48,3.92,6.36,-26.93,-51.12
-3.46,2.48,2.67,64.35,-26.14,-80.69
0.92,5.13,3.53,92.95,19.53,-77.82
2.68,7.07,5.51,107.46,22.28,-44.23
1.89,9.39,7.01,130.57,-5.71,-12.76
0.33,10.59,8.55,144.59,-1.63,-12.89
-0.91,9.98,10.94,134.35,41.06,-35.39
-1.67,9.27,12.95,102.95,63.13,-40.38
-1.68,6.46,12.06,62.83,18.62,-45.14
-0.62,3.65,12.03,26.49,-64.74,-38.49
1.2,1.38,12.55,-4.55,-105.59,-29.59
2.89,1.13,10.29,-12.96,-37.3,-16.85
1.4,0.88,8.47,-6.26,61.36,-2.89
-1.67,1.15,7.33,-2.48,91.79,2.6
-4.24,1,6.01,2.95,61.85,1.2
-5.11,1.68,6.7,-5.89,15.57,-0.45
-4.64,1.08,7.44,-17.29,-21.57,-11
-3.17,0.14,7.29,-11.75,-24.8,-17.28
-2.54,-0.3,7.5,-3.21,-10.59,-17.09
-2.8,-0.57,7.98,9.78,8.19,-14.1
-3.74,0.06,8.93,16.91,13.62,-17.7
-4.05,1.03,9.64,0.39,0.57,-18.92
-3.81,0.31,9.61,-20.53,-16.14,-18.68
-2.92,-0.44,8.49,-20.34,-5.53,-20.81
-2.67,-0.78,8.2,-11.93,14.35,-16.73
-3.39,-0.74,7.81,-2.78,23.07,-17.58
-3.81,-0.26,8.16,5.75,13.13,-24.53
-3.85,0.27,8.86,6.18,-1.38,-30.39
-3.44,0.16,9.33,4.72,-15.59,-34.78
-2.89,0.52,10.01,-6.01,-27.11,-29.9
-2.03,0.33,9.85,-13.94,-24.55,-27.52
-1.28,0.14,9.39,-14.31,-5.47,-22.58
-1.89,0.48,9.71,-12.48,9.41,-16.12
-2.97,0.63,9.86,-13.51,-0.71,-15.99
-3.46,1.24,9.67,-13.88,-30.1,-22.4
-2.76,1.53,9.49,-19.92,-63.33,-26.97
-1.23,2.1,9.09,-18.27,-62.85,-22.28
-0.41,1.96,9.1,-11.14,-36.93,-17.58
-0.9,2.98,9.97,-15.22,-24.43,-9.9
-2.08,4.59,10.61,-39.31,-30.41,-10.93
-2.49,4.96,9.83,-65.77,-35.1,-15.14
-1.23,3.22,8.56,-72.84,-17.24,-19.65
-0.01,2.37,7.94,-68.63,16.3,-11.24
-1.23,2.91,8.14,-70.59,22.34,3.82
-3.23,3.36,8.29,-81.01,-13.82,13.7
-3.51,2.55,7.73,-76.74,-32.66,6.93
-2.37,2.16,7.7,-77.05,-32.6,-0.81
-1.37,1.37,7.4,-80.4,-38.82,5.9
-1.1,0.26,7.63,-75.16,-46.69,23.46
-1.62,0.46,7.62,-71.2,-50.35,33.94
-2.2,0.43,7.38,-65.16,-41.63,28.03
-1.91,0.27,7.36,-65.16,-47.66,23.94
-1.55,-1.14,6.51,-50.89,-38.33,21.63
-0.93,-1.78,7.45,-41.44,-7.85,17.36
-1.7,-1.79,8.09,-39.49,19.17,16.69
-3.21,-2.08,7.9,-45.53,20.45,14.49
-4.52,-2.29,7.79,-38.88,-28.39,6.63
-2.96,-3.93,7.29,-31.32,-71.75,-4.78
-0.88,-4.72,7.51,-20.28,-64.8,-4.35
-1.22,-5.55,7.07,-11.32,-47.54,14.25
-2.48,-6.44,6.76,4.9,-60.47,25.96
-3.26,-6.59,6.7,21.43,-82.72,18.7
-2.86,-6.69,7.28,20.63,-89.31,15.1
-2.36,-7,6.89,38.74,-82.97,-1.54
-1.78,-6.42,8.18,52.22,-80.83,-9.71
-2.11,-6.18,8.75,54.53,-94.74,-13.01
-1.71,-6.18,8.59,53.44,-103.88,-14.96
-1.26,-6.17,8.99,52.16,-85.96,-24.9
-1.27,-5.88,8.98,40.63,-57.24,-31.85
-1.69,-5.73,9.49,33.19,-37.3,-32.82
-2.46,-5.88,9.12,22.64,-47.6,-25.14
-2.71,-6,8.5,16.79,-56.75,-23.07
-2.29,-6.49,7.85,15.45,-40.1,-30.32
-1.74,-5.8,7.54,21.12,-6.99,-36.97
-2.16,-4.84,8.37,22.52,12.21,-38.68
-2.12,-4.23,8.56,14.29,17.89,-41.73
-1.62,-3.86,8.93,13.01,9.23,-36.79
-0.99,-3.29,9.21,9.72,-3.76,-33.56
0.28,-2.56,9.84,7.34,4.35,-38.68
1.2,-2.07,10.17,-2.05,23.8,-41.54
0.94,-1.89,10.32,-9,23.62,-34.53
0.48,-1.88,9.95,-13.45,6.6,-29.96
0.48,-1.95,9.21,-13.33,0.08,-30.81
0.47,-1.77,8.98,-13.21,0.93,-32.64
0.34,-1.78,8.82,-9.92,-4.37,-29.65
0.21,-1.53,8.89,-8.33,-8.21,-30.08
0.24,-1.53,9.04,-10.53,-5.04,-35.32
0.29,-1.51,8.96,-13.7,-0.47,-35.32
-0.24,-1.72,8.79,-16.5,-7.05,-31.54
-0.38,-2.01,8.14,-14,-19.43,-26.48
-0.35,-2.01,8.15,-3.64,-19.07,-28.37
0.54,-1.78,8.6,0.21,8.68,-32.89
0.14,-1.36,9.28,-5.59,25.39,-32.64
-0.35,-1.76,9.24,-6.44,11.79,-28.49
-0.74,-1.97,9.01,-5.4,-12.66,-22.76
-0.36,-2.17,8.71,-2.6,-26.81,-20.51
0.18,-2.03,8.99,-1.26,-12.05,-24.23
0.38,-1.77,9.17,-4.06,5.26,-24.59
0.16,-2.08,8.81,-3.82,11.85,-22.03
-0.55,-1.86,9,-1.44,-4.61,-15.69
-0.65,-1.97,8.81,1.43,-23.33,-16.79
0.28,-1.67,9.12,-0.89,-11.5,-23.68
0.55,-1.83,9.18,-5.95,5.26,-22.4
0.17,-2.15,8.57,-6.07,6.67,-18.86
-0.31,-2.1,8.36,-3.21,-6.14,-14.04
-0.64,-1.7,8.8,1.3,6.91,-23.25
-0.97,-1.79,8.81,-1.2,4.96,-19.59
-1.13,-2,8.85,-1.01,3.07,-19.96
-1.11,-1.91,8.78,-2.96,3.13,-22.46
-1.07,-2.07,8.62,-2.35,2.21,-23.37
-1.15,-2.07,8.66,-0.59,-2.05,-24.41
-1.35,-2.08,8.72,0.33,-11.57,-27.52
-1.23,-2.39,8.69,0.57,-22.91,-34.04
-0.99,-1.64,8.81,1.43,-25.71,-39.84
-0.82,-1.23,8.81,-4.31,-19.07,-39.47
-0.37,-1.49,8.59,-6.38,-12.72,-28.37
1.15,-19.6,3.73,-76.56,-47.18,-36.79
-1.02,-2.29,9.06,-1.68,-15.89,-18.56
-0.98,-1.85,8.93,-1.99,-5.16,-24.9
-0.56,-2.15,8.58,1,6.6,-29.29
-0.87,-2.19,8.57,6,7.46,-26.24
-1.2,-2.34,8.53,9.11,-4.31,-22.82
-1.15,-2.51,8.34,11.55,-14.19,-21.18
-0.95,-2.5,8.8,9.29,-10.35,-20.87
-0.95,-2.5,8.89,5.02,-0.96,-22.82
-1.66,-3.02,9.06,2.22,4.78,-23.92
-2.19,-3.57,9.26,-1.5,-0.83,-21.3
-2.51,-4.26,9.42,-4.61,-10.83,-19.78
-2.17,-5.19,9.6,-8.51,-16.44,-21.48
-1.56,-5.38,10.04,-11.44,-8.09,-22.28
-1.44,-5.39,10.05,-27.48,18.19,-21.18
-2.35,-5.69,9.16,-44,45.38,-24.9
-3.32,-6.61,8.28,-49.49,54.9,-33.8
-3.72,-7.22,8.03,-50.04,42.52,-37.52
-3.41,-7.39,7.86,-48.27,28.68,-37.88
-2.5,-7.26,8.1,-44.73,32.58,-38.86
-2.34,-7.47,7.59,-47.48,48.62,-40.75
-3.19,-7.48,7.01,-47.23,53.31,-45.69
-3.85,-7.68,6.57,-42.54,35.08,-50.57
-3.5,-7.55,6.69,-33.21,33.68,-61.12
-2.6,-7.31,7.7,-27.9,55.2,-70.63
-2.79,-6.85,8.11,-26.01,64.47,-72.46
-3.5,-6.18,8.09,-26.5,41.36,-68.56
-3.98,-6.03,7.31,-20.71,8.43,-63.31
-3.51,-5.33,6.91,-3.27,-6.2,-69.71
-2.07,-4.36,7.36,16,39.71,-83.37
-2.44,-3.09,7.77,15.94,59.41,-77.34
-3.18,-2.64,7.14,19.17,28.01,-58.37
-3.74,-2.22,6.54,31.18,-27.91,-43.31
-3.35,-1.22,6.5,50.39,-51.81,-49.84
-1.06,0.22,7.31,67.4,30.99,-72.88
-1.94,1.97,8.21,50.88,104.41,-62.64
-2.88,2.05,8.08,59.35,70.87,-43.25
-2.65,3.7,6.26,71.18,-8.27,-27.82
-1.62,4.63,6.14,99.84,-54.68,-18.07
-0.77,5.8,7.27,115.94,-20.04,-20.75
-0.73,6.91,8.89,109.66,18.68,-16.97
-1.17,6.9,10.85,94.96,16.91,-0.87
-0.59,6.21,10.06,79.23,6.24,8.64
-0.67,4.4,9.63,69.41,13.43,7.91
-2.34,3.58,10.3,57.46,24.47,4
-3.76,2.83,10.91,35.75,12.46,-12.34
-3.2,2.17,10.7,11.67,-33.7,-25.32
-1.55,1.65,10.04,-7.72,-56.99,-19.53
-1.6,1.08,9.42,-14.12,-42.6,-9.59
-1.76,1.19,8.73,-18.21,-15.53,-11.36
-1.79,0.62,7.76,-13.09,9.96,-15.08
-2.06,-0.21,6.87,-0.22,25.32,-16.42
-2.77,0.27,6.96,14.96,14.17,-15.63
-3.56,1.04,8.42,10.15,-4.92,-12.64
-3.8,1.32,9.69,-12.11,-26.99,-9.96
-3.25,0.26,8.76,-17.35,-22.48,-20.69
-2.59,-0.03,8.74,-13.64,-8.82,-26.54
-1.94,-0.33,8.53,-7.11,3.86,-21.42
-2.56,-0.19,8.85,-1.38,6.12,-15.26
-2.92,0.38,9.07,-1.5,3.92,-15.08
-3.1,1.11,9.87,-17.78,-1.14,-15.14
-3.04,0.97,9.84,-28.27,-3.4,-17.52
-2.66,1.44,10.38,-34.37,-10.71,-18.49
-1.83,1.54,10.74,-44.73,-18.94,-19.29
-1.11,0.52,10,-44.79,-10.41,-18.92
-1.42,1.04,9.32,-28.82,7.28,-16.48
-3.05,2.63,9.83,-29.49,-0.83,-14.04
-4,4.3,10.14,-44.43,-38.7,-13.01
-3.66,3.73,9.52,-66.44,-76.14,-17.95
-2.18,2.14,8.55,-77.48,-72.3,-23.01
0.12,1.8,7.81,-66.99,-9,-19.35
-1.09,2.51,8.26,-59.12,26.97,-3.43
-2.98,4.5,9.1,-70.34,-12.85,10.1
-3.59,3.91,8.15,-82.78,-74.19,13.39
-2.09,2.09,6.79,-69.79,-84.07,2.66
0.06,0.87,6.7,-49.85,-53.7,-3.25
0.47,1.77,8.11,-48.82,-27.6,15.65
-0.92,2.86,8.53,-57.78,-37.72,37.48
-2.42,2.18,7.68,-53.45,-64.8,46.32
-0.96,0.19,6.71,-38.09,-61.32,32.6
0.68,-0.87,7.19,-27.84,-27.24,32.54
-0.22,-0.38,7.76,-34.49,-21.69,52.54
-2.11,-1.24,7.3,-20.59,-51.2,59.68
-2.34,-3.3,6.91,-9.25,-72.97,44.07
-0.19,-4.56,7.71,-0.71,-59.74,31.93
0.22,-4.81,8.16,0.21,-35.65,35.1
-1.3,-5.06,8.03,3.86,-25.53,33.27
-2.84,-5.63,7.74,15.02,-45.22,26.08
-3.45,-6.44,7.38,31.43,-79.13,13.7
-2.59,-6.65,8.26,42.83,-94.43,-1.3
-1.51,-6.24,9.53,44.05,-88.58,-14.9
-1.14,-6.39,9.81,40.27,-67.3,-22.03
-2.36,-6.5,10.33,27.71,-51.32,-31.6
-3.77,-7.11,9.34,31.06,-66.02,-43.74
-3.65,-7.38,9.21,41.18,-66.75,-67.34
-2.78,-6.84,9.44,36.55,-67.85,-74.17
-2.12,-6.84,9.57,35.21,-66.5,-59.84
-3,-6.23,9.55,26.36,-79.67,-49.35
-2.44,-5.43,9.13,13.68,-67.6,-53.56
-1.63,-4.89,8.71,-0.89,-34.92,-61.97
-0.92,-4.96,8.07,-1.93,-8.15,-61.79
-0.9,-4.54,7.97,1.18,-8.4,-47.09
-0.6,-4.19,8.18,5.27,-16.93,-34.59
0.04,-3.52,8.48,8.68,3.01,-37.82
0.43,-2.94,9.28,5.21,21.18,-37.95
0.55,-2.88,9.13,-3.7,17.82,-32.76
1.01,-2.84,8.56,-3.27,11.97,-26.79
1.37,-2.61,8.79,1.73,10.63,-21.12
1.19,-2.26,8.97,2.52,7.34,-15.75
1.02,-1.75,9.16,-1.75,4.96,-17.82
1.06,-1.73,9.11,-6.07,1.85,-18.98
0.94,-2.06,8.66,-5.65,-5.83,-15.14
1.14,-1.84,8.67,-1.01,-5.35,-11.97
0.62,-1.16,9.12,-2.35,0.93,-11.73
-0.11,-1.19,9.33,-6.14,4.1,-19.78
-0.08,-1.19,9.34,-7.78,-2.54,-21.97
-0.04,-1.47,8.82,-7.48,-6.32,-24.78
0.02,-1.31,8.83,-6.32,-8.88,-22.46
-0.08,-1.25,8.86,-8.33,-10.22,-27.09
0.57,-1.43,8.75,-6.99,0.14,-30.75
0.85,-1.35,9.14,-9,11.6,-28.8
0.41,-1.57,9.17,-8.51,12.34,-23.49
-0.16,-1.62,9.01,-8.51,-4.98,-22.34
0.11,-1.77,8.73,-5.28,-16.81,-21.67
0.63,-1.46,9,-3.57,-12.6,-23.68
1,-1.34,9.29,-6.14,-0.29,-24.84
0.8,-1.52,9.1,-6.2,4.59,-22.09
0.48,-1.52,9.04,-6.5,1.48,-21.97
0.68,-1.74,8.66,-4.49,3.07,-21.42
-0.77,-1.64,7.42,0.63,0.26,-25.63
-0.9,-1.82,9.05,3.68,-0.22,-24.84
-0.75,-2.09,8.9,2.04,-3.88,-22.52
-0.66,-1.98,8.73,1.3,-4.19,-21.18
-0.7,-1.87,8.7,1.49,-1.75,-22.28
-0.75,-2,8.62,4.6,-3.52,-22.7
-0.87,-1.81,8.82,5.88,-12.05,-21.12
-0.94,-1.65,9.21,-0.65,-25.04,-20.63
-0.86,-1.24,9.2,-8.33,-26.99,-28.43
-0.23,-1.4,8.89,-11.2,-17.6,-29.04
-0.23,-1.88,8.75,-7.72,-15.65,-20.45
-0.48,-1.95,8.71,-3.64,-13.88,-17.28
-0.55,-1.8,8.68,-2.96,-12.05,-20.93
-0.56,-1.76,8.78,-2.84,-4.8,-25.51
-0.46,-1.77,8.8,-5.71,-3.7,-25.87
-0.87,-0.31,10.46,-2.84,2.52,-16.73
-0.56,-1.71,8.42,-10.77,-7.6,-23.49
-0.48,-2.19,8.81,-6.75,-13.15,-23.37
-0.27,-2.22,8.75,-2.9,-5.65,-22.28
-0.43,-2.02,8.78,-0.89,-4.19,-21.36
-0.56,-2.11,8.71,-0.53,-7.66,-21.06
-0.59,-2.14,8.49,0.08,-8.33,-21.6
-0.5,-2.2,8.37,3.8,-1.81,-22.76
-0.49,-2.33,8.33,6.24,1.91,-21.73
-0.75,-2.59,8.56,10.63,-2.36,-18.92
-0.91,-2.63,8.73,11,-8.88,-15.63
-0.98,-2.7,8.95,8.8,-9,-16.06
-0.88,-2.76,9.16,4.54,0.93,-17.82
-0.97,-2.97,9.06,0.39,12.46,-16.06
-1.28,-3.14,8.94,-3.76,14.71,-12.09
-1.31,-3.88,8.64,-8.82,16.85,-11.97
-1.28,-4.04,8.48,-8.39,23.56,-13.01
-1.61,-4.22,8.51,-7.11,30.08,-12.09
-2.39,-4.05,8.39,-8.82,30.69,-9.59
-2.94,-4.42,8.19,-12.84,26.91,-12.46
-3.03,-5.29,8.51,-12.6,24.17,-17.76
-2.59,-5.75,8.97,-14.67,25.14,-21.3
-2.31,-5.88,9.41,-20.77,32.4,-22.89
-2.63,-6.33,9.05,-28.39,35.39,-23.13
-3.07,-6.81,8.49,-32.78,35.39,-27.15
-2.79,-7.22,8.54,-32.42,43.49,-33.49
-2.9,-7.44,8.88,-31.01,45.2,-36.79
-3.45,-7.17,9.58,-30.16,17.7,-33.68
-2.89,-7.42,9.51,-24.49,-5.9,-27.03
-2.79,-6.98,10.62,-26.44,-18.27,-26.85
-2.02,-6.73,11.07,-32.42,7.28,-41.85
-2.15,-6.6,11.2,-39.24,53.43,-51.73
-3.09,-6.8,9.84,-42.11,55.57,-43.13
-4.89,-7.09,8.44,-45.04,17.4,-28.37
-6.17,-7.09,7.24,-39.98,-30.59,-31.36
-4.95,-6.43,5.2,-26.99,-38.27,-45.14
-4.02,-5.05,4.18,-9.18,-3.88,-70.87
-3.75,-4.19,3.18,20.33,52.03,-79.04
-5.2,-1.94,3.05,50.69,38.68,-71.18
-4.83,1.36,2.71,65.08,-26.44,-64.35
-1.12,3.29,3.89,100.39,-80.28,-63.62
1.28,7.5,2.96,106.49,-113.58,-66.85
5.24,10.11,3.15,149.59,-64.92,-60.51
4.38,11.1,6.55,164.05,-36.32,-43.8
2.89,12.61,10.21,160.02,-32.36,-44.1
2.3,11.89,13.93,133.25,-9.31,-50.45
2.39,9.1,15.63,71.97,6.36,-47.46
2.95,4.85,13.44,22.46,2.58,-37.52
3.22,1.94,11.01,10.15,7.21,-16.6
0.89,2.41,10.99,6,28.62,6.02
-1.51,2.25,10.51,1.18,45.32,7.3
-2.9,1.79,9.31,-2.05,39.1,-3.62
-3.25,1.44,8.39,0.08,20.08,-14.9
-3.17,1.17,8.22,5.15,3.19,-22.4
-2.81,1.7,9.3,-9.18,-14.61,-24.47
-1.73,1.36,9.08,-15.77,-18.82,-25.08
-0.9,0.39,8.46,-14.79,-10.35,-18.13
-1.48,-0.12,8.44,-5.16,-2.72,-13.43
-2.08,-0.07,8.98,7.04,12.95,-15.63
-2.88,0.42,9.82,10.39,22.03,-24.1
-3.16,0.86,9.8,3.25,8.37,-31.18
-2.34,0.96,9.94,-13.21,-9.43,-26.24
-1.46,0.74,9.51,-19.79,-8.7,-18.13
-1.49,0.74,9.64,-22.11,-3.27,-14.23
-1.2,1.19,9.64,-26.14,1.48,-16.73
-0.81,1.23,9.21,-25.04,7.7,-17.89
-0.73,1.41,8.7,-19.49,-2.3,-21.85
-0.18,1.33,7.98,-4.06,-18.33,-30.63
1.28,2.53,8.11,1.73,-23.21,-23.74
1.63,3.08,8.07,-3.15,-8.09,-11.54
0.17,3.99,8.3,-7.29,3.98,-5.26
-1.71,4.94,9.15,-19.43,-18.52,-4.65
-2.59,4.82,8.63,-31.93,-44.43,-10.57
-0.73,3.8,7.79,-37.9,-36.26,-13.31
-0.37,3.56,8.2,-36.62,-11.02,-10.45
-1.34,4.83,9.26,-43.21,-3.15,-5.51
-2.47,5.51,10.03,-54.49,-27.11,-8.86
-1.52,2.73,8.65,-66.5,-47.24,-10.93
0.79,0.72,8.28,-59.31,-16.38,-0.75
0.17,1.04,8.34,-56.38,16.3,12.3
-2.6,2.38,9.11,-59.37,-17.11,30.59
-3.47,2.82,9.51,-56.32,-75.28,33.76
-1.4,1.06,8.58,-57.17,-67.72,12.66
0.47,-0.06,8.85,-46.44,-35.41,13.33
0.03,-0.78,7.79,-49,-14.37,20.1
-1.53,-0.67,8.19,-43.27,-37.11,35.29
-3.29,-1.58,8.33,-31.93,-53.27,30.77
-3.57,-1.68,8.77,-28.15,-48.15,4.74
-2.17,-2.87,7.67,-25.1,-27.97,-18.74
-0.67,-3.86,6.83,-9.85,-10.53,-31.79
0,-4.12,6.74,2.04,-23.76,-26.06
0.63,-5.03,6.69,10.02,-55.71,-14.96
0.65,-6.41,6.3,33.99,-60.83,-12.09
0.51,-6.94,6.24,45.88,-46.93,-12.76
0.23,-6.18,7.99,56.73,-40.71,-19.65
-0.05,-7.07,8.14,58.5,-44.49,-11.36
-1.07,-6.41,9.17,54.05,-59.49,-2.58
-1.33,-6.06,9.67,50.63,-61.57,2.66
-1.82,-5.61,9.57,41.85,-53.39,-1.06
-1.98,-5.63,9.66,38.25,-24.31,-10.26
-2.27,-5.65,10.21,34.23,-4.37,-19.23
-2.64,-4.93,11.02,22.71,-6.14,-18.8
-2.68,-4.83,10.84,4.6,-19.31,-18.56
-2.03,-4.88,10.21,-1.14,-18.15,-20.26
-1.34,-4.31,10.18,2.65,-5.9,-22.46
-0.86,-3.83,10.27,1.85,8.13,-21.12
-1.06,-3.24,9.81,2.77,11.3,-22.15
-1.26,-2.79,9.34,-0.59,2.4,-23.07
-1.14,-2.28,9.18,-2.84,-16.44,-22.58
0.27,-2.14,8.99,-3.09,1.06,-28.92
0.61,-1.69,9.27,-8.57,26.48,-25.87
0,-1.87,8.63,-11.01,29.71,-16.73
-0.91,-1.69,8.43,-4.43,12.09,-14.41
-0.71,-1.29,8.78,-1.56,-4.74,-18.68
0,-0.93,8.98,-5.95,-7.11,-21.91
0.57,-1.01,8.74,-5.71,3.43,-22.52
0.48,-1.17,8.67,-6.14,15.63,-20.08
-0.03,-1.4,8.84,-2.42,10.14,-14.84
-0.75,-1.19,8.99,-1.87,-14.98,-12.64
-0.01,-0.83,9.26,-1.38,-17.85,-20.81
0.65,-0.62,9.56,-5.34,0.81,-22.95
0.67,-1,9.45,-8.27,12.46,-18.74
-0.25,-0.96,9.28,-8.27,6.12,-11.48
-1.22,-1,8.71,-11.2,-17.42,-10.69
-0.77,-1.48,8.51,-4.85,-24.92,-18.43
-2.01,-1.41,8.17,1.61,-2.11,-26.36
-1.2,-1.23,8.79,6.36,4.35,-22.46
-1.15,-1.32,8.69,6.12,3.98,-22.03
-1.43,-1.3,8.64,5.63,-1.5,-21.54
-1.59,-1.12,8.8,5.88,-6.5,-23.19
-1.21,-1.15,9.43,-1.01,-15.04,-20.32
-0.68,-1.3,9.27,-4.25,-13.27,-12.03
-1.53,-0.64,9.18,-6.32,-16.93,-14.47
-1.83,-0.84,9.07,-13.51,-23.52,-29.17
-1.32,-1.18,8.96,-10.34,-19,-34.35
-0.53,-1.4,8.37,74.29,9.29,-26.85
-1.67,-1.7,9.07,-4.79,-10.96,-16.06
-1.39,-1.11,8.93,-1.68,-7.72,-15.08
-1.26,-0.85,8.87,-5.65,-5.29,-20.81
-1.07,-1.27,8.58,-2.78,0.51,-26.12
-1.35,-1.41,8.67,1.36,-5.35,-23.68
-1.29,-1.34,8.57,5.08,-10.65,-23.31
-1.1,-1.26,8.7,8.62,-5.41,-26.24
-1.08,-1.24,8.83,10.33,-1.87,-28.49
-1.15,-1.23,8.98,7.58,-4.68,-26.36
-1.21,-1.14,9.06,0.88,-8.76,-22.58
-1.28,-1.6,8.61,2.04,-6.5,-22.03
-1.51,-1.83,8.68,3.07,-2.97,-21.79
-1.88,-2.35,8.58,5.45,-0.41,-22.76
-2.42,-2.71,8.7,5.02,-4.31,-22.95
-3.1,-3.21,9.31,4.05,-6.63,-22.76
-3.36,-3.57,9.88,-2.6,-0.22,-25.63
-3.02,-4.54,10.08,-16.14,11.91,-33.19
-2.31,-5.7,9.87,-27.78,16.79,-34.47
-1.73,-6.75,9.38,-36.38,31.42,-28.49
-2.3,-7.34,8.58,-35.4,45.45,-19.78
-2.98,-7.22,9.24,-28.7,40.75,-15.26
-3.06,-6.42,10.76,-34.73,27.82,-17.09
-2.93,-6.34,11.19,-53.82,20.2,-16.79
-2.87,-6.99,10.31,-62.17,27.7,-17.76
-3.74,-7.34,9.86,-63.02,32.03,-20.81
-4.13,-7.42,9.36,-58.45,35.81,-29.29
-4.81,-6.5,9.59,-61.74,23.25,-34.1
-5.69,-6.31,9.04,-68.02,-18.03,-38.86
-5.07,-6.6,7.95,-64.92,-60.16,-49.47
-2.32,-6.62,7.48,-46.68,-14.86,-67.09
-1.62,-6.39,7.42,-30.28,83.31,-69.77
-4.36,-5.71,6.86,-14.24,79.65,-47.34
-7.07,-4.55,5.56,-1.38,-0.65,-41.42
-7.59,-2.4,5.91,3.68,-112.78,-50.02
-1.29,-1.55,5.95,15.51,-57.18,-102.09
1.79,-1.5,6.54,39.41,120.69,-116.85
-1.31,0.2,6.17,48.5,159.47,-76.24
-3.56,2.08,4.19,53.13,14.29,-35.51
-2.57,4.02,4.24,83.01,-128.27,-29.04
1.69,5.63,5.31,89.41,-146.32,-51.06
6.33,6.53,6.35,111.73,-2.97,-55.99
4.21,7.19,8.54,118.5,87.76,-11
-0.86,9.23,9.74,116.97,58.62,3.4
-2.96,8.87,10.37,103.44,26.91,-18.8
-2.42,7.44,11.16,84.23,16.85,-48.8
0.17,5.59,11.45,51.85,1.73,-59.78
1.29,3.46,10.51,19.35,-22.05,-40.08
0.27,1.97,9.75,0.39,-39.61,-20.75
-0.26,1.72,9.41,-9.67,-14.49,-11.73
-0.85,1.4,9.03,-11.32,18.86,-9.35
-1.76,1.47,8.28,-14.55,39.1,-3.98
-3.1,1.1,7.4,-12.11,21.85,-3.62
-3.41,0.36,6.96,-2.9,2.15,-10.26
-3.25,0.68,7.41,11.24,-0.41,-15.26
-3.12,0.99,8.26,18.13,1.3,-22.28
-2.71,2.12,9.69,-1.14,-16.57,-17.34
-2.14,0.94,9.68,-20.59,-29.92,-11.3
-1.9,0.82,9.82,-24.31,-24,-8.07
-1.59,0.54,9.69,-26.62,-15.29,-8.5
-1.45,0.64,9.84,-26.32,0.14,-6.79
-1.7,0.79,9.94,-21.2,11.73,-7.95
-2.38,1.27,9.98,-14.37,9.41,-10.75
-3.04,2.48,10.62,-16.32,-1.87,-18.43
-2.57,3.29,10.69,-30.16,-31.02,-27.52
-0.66,2.27,9.48,-45.16,-41.63,-23.68
0.44,2.22,8.46,-31.26,-7.05,-12.89
-1.14,2.99,9.36,-21.93,20.08,-6.54
-3.61,4.67,9.87,-29.61,3.43,-5.63
-3.78,5.17,9.35,-52.78,-44.25,-23.68
0.05,2.7,7.54,-63.51,-44.8,-32.58
2.55,1.72,7.3,-55.77,28.8,-9.23
-0.82,2.37,8.96,-53.76,55.51,14.07
-4.41,4.21,9.27,-76.56,-5.29,27.18
-4.52,3.19,7.46,-76.81,-52.11,12.54
-1.38,0.85,6.8,-67.29,-50.83,1.38
0.3,0.55,7.71,-67.66,-26.44,21.5
-0.96,1.56,8.19,-70.04,-8.82,51.99
-3.92,0.83,7.77,-58.7,-32.97,69.19
-5.34,1.33,7.06,-53.21,-61.93,56.14
-3.78,0.11,7.34,-50.28,-81.02,43.82
-1.49,-1.59,7.52,-42.48,-83.21,50.53
-0.54,-2.18,7.91,-33.39,-64.19,60.41
-3.14,-2.23,8.01,-23.15,-54.55,60.35
-4.48,-2.76,7.67,-11.75,-73.03,41.44
-2.9,-3.13,6.3,3.86,-89.25,15.83
-1.06,-3.84,6.48,8.01,-76.02,4.61
-0.03,-5,7.18,22.34,-75.53,-3.62
-0.68,-6.27,7.83,36.36,-68.82,-4.59
-2.35,-6.61,8.11,42.71,-59.07,-15.57
-3.58,-6.84,8.83,47.34,-83.88,-31.54
-2,-7.31,9.19,48.19,-94.25,-40.26
-0.87,-7.5,9.88,51.3,-82.85,-38.49
-0.66,-7.09,10.14,41.43,-58.39,-37.76
-1.34,-6.39,10.09,22.83,-22.11,-39.53
-3.41,-6.82,9.84,14.11,-15.96,-32.76
-4.77,-6.49,9.74,5.69,-30.53,-29.84
-4.47,-7.12,8.89,4.29,-34.13,-30.51
-2.92,-6.61,9,14.66,-5.59,-35.93
-1.91,-5.53,9.1,14.66,26.36,-33.19
-2.42,-4.38,9.19,6.85,26.06,-23.74
-2.83,-3.71,8.9,2.4,-3.21,-18.8
-2.4,-3.38,8.8,4.41,-24.13,-27.09
-0.21,-2.65,8.62,9.78,8.74,-42.21
0.64,-2.07,9.57,6,38.8,-40.45
0.44,-2.12,9.43,-0.4,37.4,-28.56
-0.35,-2.09,9.31,-1.68,9.17,-18.13
0.14,-1.62,9.18,-2.23,-9.07,-18.49
0.78,-1.4,9.38,-1.07,5.02,-23.25
0.47,-1.25,9.12,-4.67,8.25,-20.45
0,-1.78,8.71,-2.42,6.91,-21.73
-0.63,-1.53,8.44,-4.79,-3.21,-19.04
-0.65,-1.59,8.43,-3.94,-12.05,-20.81
-0.62,-1.1,8.56,-5.1,-12.42,-21.54
-0.54,-1.17,8.52,-4.49,-6.38,-26.42
-0.39,-1.12,8.98,-3.27,1.67,-29.65
-0.59,-1.16,9.02,-3.82,-3.52,-28.13
-0.45,-1.28,9.13,-4.79,-14.68,-24.47
-0.23,-1.08,9.03,-4.25,-15.83,-25.81
0.37,-1.16,9.03,-1.62,1.24,-31.42
0.09,-1.22,9.01,-0.89,12.4,-30.93
-0.32,-1.3,9.15,-0.4,4.96,-26.3
-0.7,-1.27,8.95,-2.17,-15.59,-21.06
-0.27,-1.2,8.86,-3.7,-25.65,-22.95
0.72,-1.11,9.18,-3.88,-5.22,-28.07
0.6,-1.35,9.14,-5.04,10.51,-24.59
-0.24,-1.55,8.94,-4.37,7.09,-17.4
-1.15,-1.43,8.74,-4.18,-12.6,-15.51
-0.86,-1.49,8.74,-3.33,-20.41,-22.4
-0.03,-1.3,8.98,-4.67,-5.59,-27.28
-0.88,-0.74,9.36,3.07,12.34,-26.79
-1.22,-1.66,8.91,5.88,6.67,-33.43
-1.24,-1.54,8.72,6.18,3.62,-38.98
-1.02,-1.35,8.62,2.1,0.2,-34.78
-0.79,-1.87,8.66,4.9,-4.19,-27.52
-0.82,-1.8,8.57,4.29,-15.77,-17.09
-1.04,-1.59,8.81,2.77,-25.29,-15.75
-1.08,-0.59,9.11,-3.03,-23.64,-23.13
-0.97,-0.38,9.19,-19.73,-20.53,-31.73
-0.43,-1.39,8.81,-18.27,-16.99,-28.92
0.06,-2.85,8.2,120.33,16.79,-24.53
-1.08,-2.26,9.21,-4.43,-16.02,-15.63
-1.06,-1.07,9.27,-4.55,-6.5,-16.48
-0.9,-1.49,8.73,-5.89,-0.22,-23.98
-1.02,-1.98,8.1,2.4,-1.32,-24.78
-1.21,-1.94,8.06,11.85,-8.94,-24.04
-1.05,-2.18,8.04,18.32,-5.1,-24.96
-1.18,-1.79,8.25,18.99,2.28,-28.56
-1.33,-2.24,8.4,19.11,4.96,-28.92
-1.77,-2.71,8.65,17.58,-1.08,-27.09
-2.23,-2.98,8.79,14.11,-11.14,-24.84
-2.5,-3.54,8.83,8.38,-9.19,-27.64
-2.36,-4.16,8.44,-1.93,9.41,-35.08
-2.54,-5.88,7.56,-11.62,30.08,-43.49
-3.04,-7.83,7.08,-12.42,40.69,-44.9
-4.15,-8.23,8.11,-5.28,31.18,-38.49
-5,-7.65,9.27,-9.18,0.81,-33.13
-3.56,-7.11,10.7,-21.81,14.23,-50.63
-2.09,-7.78,11.24,-41.5,57.34,-61.97
-2.62,-8.22,10.87,-49.92,75.45,-58.68
-3.22,-8.75,9.58,-41.44,60.69,-43.49
-3.96,-7.77,9.87,-37.6,43.13,-33.31
-5,-6.76,10.56,-43.51,-3.15,-27.15
-4.13,-6.29,10.21,-50.65,-16.2,-53.25
-2.18,-5.63,10.32,-58.21,28.31,-77.15
-2.97,-6.01,9.17,-63.21,33.62,-66.36
-3.52,-6.74,6.89,-44,10.08,-44.29
-4,-5.56,5.01,0.94,-61.38,-15.26
-2.04,-2.73,5.31,29.66,-80.59,-27.34
0.73,0.15,7.61,43.13,-0.77,-40.63
-0.69,1.87,7.83,25.94,76.73,-41.24
-3.28,3.1,5.74,18.62,65.26,-32.28
-3.77,2.26,5.64,49.47,21.91,-31.54
-2.72,5.29,2.95,84.96,-38.64,-32.82
-1.04,8.04,3.79,129.47,-100.47,-41.54
2.76,10.41,7.02,136.91,-55.41,-63.13
3.56,10.92,10.21,147.4,28.13,-53.56
0.73,11.16,12.75,124.29,29.71,-49.1
0.05,8.52,12.31,79.96,-4.8,-62.15
1.42,5.81,11.38,54.78,-24,-63.49
1.84,3.89,11.51,27.83,-28.46,-54.23
1.69,3.1,11.6,7.83,-23.52,-37.34
0.87,2.19,11.28,-5.46,-14.86,-17.76
-0.21,1.91,10.14,-11.38,8.98,-9.17
-1,1.78,8.78,-10.16,30.87,-4.84
-2.17,1.74,8.42,-14.31,34.71,-10.26
-3.09,1.43,7.89,-15.22,13.43,-16.54
-2.74,1,7.36,-11.75,-12.66,-20.99
-2.28,0.33,7.43,1,-17.97,-24.59
-1.78,0.5,8.12,10.88,-7.42,-22.64
-2.07,0.69,9.08,4.6,2.03,-20.14
-2.63,0.66,9.07,-5.59,-9.86,-16.73
-2.36,0.25,8.86,-7.42,-10.16,-21.3
-1.81,-0.05,8.6,-2.78,5.14,-22.95
-2.01,-0.1,9.2,2.77,11.24,-21.24
-2.26,-0.11,9.22,2.71,9.53,-20.45
-2.55,0.14,9.21,-0.4,4.71,-18.07
-2.24,0.05,8.76,-0.77,7.4,-20.51
-2.16,-0.07,9.19,2.16,12.76,-21.91
-2.25,0.39,9.58,-3.27,8.5,-19.65
-2.73,0.25,8.99,-10.89,-5.41,-20.51
-2.4,0.07,8.15,-9.43,-3.76,-21.85
-2.24,0.1,7.94,-5.22,2.46,-23.13
-2.22,-0.08,8.3,1.18,8.07,-27.34
-2.12,-0.24,8.82,5.69,8.01,-29.1
-2.38,-0.03,9.1,2.16,-5.83,-25.45
-2.36,0.27,8.97,-2.72,-12.66,-23.92
-2.17,0.34,8.7,-5.95,-3.58,-25.81
-2.14,0.13,8.59,-9,1.06,-24.59
-2.01,0.02,8.62,-7.11,0.14,-22.09
-2.13,0.46,8.96,-6.81,-4.37,-22.58
-2.1,0.33,9.13,-9.37,-12.66,-22.52
-1.95,0.78,9.33,-14.73,-16.87,-20.63
-1.83,0.65,9.11,-16.93,-12.91,-21.24
-1.42,0.81,8.74,-14.73,-3.03,-22.89
-1.41,1.21,8.85,-13.88,-2.66,-20.63
-1.96,2.24,9.45,-14.79,-21.93,-20.45
-2.77,3.15,9.8,-18.45,-54.92,-33.74
-1.93,2.8,9.19,-22.54,-75.59,-55.32
0.06,3.14,8.82,-21.2,-68.46,-60.38
1.32,4.34,8.63,-17.84,-46.26,-41.91
0.29,3.91,9.64,-26.32,-39.37,-9.96
-0.78,5.28,10.05,-44.24,-22.05,-6.42
-1.42,4.72,9.11,-54.92,-3.88,-22.21
-0.82,4.8,7.95,-67.6,-20.22,-24.35
0.2,4.24,7.01,-69.37,-36.99,-7.15
0.78,4.3,7,-54.79,-4.07,-0.51
-0.39,5.75,8.87,-62.6,21.54,11.63
-1.58,5.22,8.46,-79.67,-26.44,21.87
-0.85,3.07,7.12,-72.23,-77.11,35.47
0.28,2.46,7.91,-59.79,-81.26,39.49
0.69,2.83,8.94,-56.5,-51.5,41.99
-0.11,3.86,8.93,-51.87,-23.21,49.19
-1.09,2.52,7.93,-45.1,-32.11,55.65
-0.91,0.03,8.21,-45.65,-54.74,62.36
-1.19,-1.27,7.64,-38.39,-27.6,56.81
-2.12,-1.85,7.86,-26.01,-14.07,37.85
-2.41,-2.91,8.27,-16.07,-33.7,25.65
-1.88,-4.7,8.29,6.43,-28.64,17.6
-1.78,-5.5,9.17,19.23,-33.88,14.19
-2.01,-7.31,8.61,33.32,-54.8,12.18
-1.59,-8.38,8.46,50.63,-72.42,11.63
-2.61,-8.9,8.47,58.8,-91.32,16.69
-3.45,-9.43,8.68,63.19,-106.93,6.87
-2.93,-9.17,9.02,63.86,-111.38,-6.48
-1.79,-8.65,9.24,57.1,-81.63,-6.85
-2.44,-8.33,9.39,56.24,-57.72,5.16
-3.65,-7.22,9.29,49.29,-45.59,15.89
-4.79,-7.03,9.42,33.56,-30.65,19.68
-6.06,-6.76,8.95,24.6,-3.88,3.27
-6.34,-6.22,8.93,27.77,8.19,-15.93
-4.26,-4.78,10.03,21.3,2.03,-32.46
-1.32,-3.23,11.36,9.35,0.45,-35.26
1.07,-2.06,11.41,-8.45,31.42,-47.15
1.77,-1.51,11.15,-22.11,58.13,-49.59
1.57,-1.67,10.43,-27.42,47.95,-44.9
1.14,-1.72,9.29,-28.33,8.13,-34.71
1.15,-1.66,8.73,-24.67,-12.48,-31.3
1.42,-1.39,8.57,-21.14,-4.74,-35.69
1.22,-1.02,8.73,-22.23,2.89,-30.26
0.47,-1.06,8.41,-25.59,-1.08,-26.73
-0.19,-1.32,7.55,-23.51,-16.02,-23.31
-0.17,-1.22,7.22,-13.7,-22.36,-28.25
0.83,-0.96,7.96,-9.73,-3.7,-35.2
0.81,-1.1,8.31,-7.9,13.37,-32.28
-0.16,-1.08,8.89,-6.5,1.73,-24.65
-0.29,-1.25,8.86,-4,-19.19,-20.63
0.3,-0.84,9.06,-5.22,-19.8,-23.37
0.87,-0.91,9.41,-8.27,-5.77,-25.63
0.85,-1,9.41,-9.37,3.31,-24.84
-0.18,-0.03,7.29,3.85,15.79,6.72
-0.66,-0.98,9.43,7.2,15.55,9.71
-0.46,-0.68,9.25,4.15,12.38,9.16
-0.36,-0.82,9.15,-2.13,8.48,7.82
-0.62,-0.76,9.08,-11.21,0.18,5.8
-0.33,-1.23,8.76,-9.26,0.49,0.99
-0.47,-1.34,8.93,-6.03,-2.5,-3.1
-0.57,-1.05,9.01,-5.48,-11.46,-3.83
-0.47,-0.09,9.17,-5.24,-14.75,1.17
-2.44,19.6,11.66,-80.6,-26.71,-0.54
-0.4,-0.91,9.38,-12.49,-0.36,11.17
-0.33,-0.97,9.2,-10.79,8.9,12.21
-0.41,-1.18,9.12,-2.86,9.03,10.01
-0.44,-0.91,8.84,0.68,10.55,9.28
-0.59,-0.94,8.64,3.48,8.9,7.63
-0.6,-1,9,6.1,6.53,7.09
-0.32,-0.94,8.9,7.02,5,10.5
-0.43,-0.8,9.26,3.85,4.15,11.35
-0.3,-0.85,8.87,2.26,6.1,9.22
-0.24,-0.99,9.14,0.31,8.11,7.51
-0.26,-1.09,9.05,1.04,11.16,5.26
-0.32,-1.17,8.97,2.08,11.46,3.85
-0.14,-1.38,9.11,7.2,7.87,10.26
-0.26,-1.63,9.18,6.9,-1.83,16.78
-0.3,-1.86,9.56,7.32,-6.46,18.79
-0.28,-1.78,9.66,3.48,-4.21,18.24
-0.28,-1.98,9.73,1.65,6.04,16.6
-0.23,-2.34,9.54,-0.6,14.82,18.43
-0.69,-3.36,9.29,0.98,18.17,19.4
-1.03,-3.87,9.3,4.33,12.99,20.68
-1.22,-4.04,9.71,1.29,9.27,22.21
-1.31,-4.36,10.24,-5.36,15.31,20.99
-1.63,-5.2,10.19,-16.4,30.85,13.98
-2.23,-5.96,9.99,-26.15,42.44,6.05
-2.61,-7.15,9.28,-27.86,50.43,0.93
-3.14,-7.74,9.28,-23.35,39.51,6.29
-3.25,-8.29,9.1,-12.92,19.21,13.91
-2.33,-7.34,9.65,-10.12,20.18,22.94
-2.79,-6.36,9.82,-25.06,32.01,21.66
-3.06,-6.17,9.79,-43.1,44.03,5.74
-3.37,-5.75,9.04,-56.28,48.48,-8.71
-3.41,-5.86,8.02,-61.52,37.74,-13.65
-2.63,-5.93,6.73,-52.19,31.89,-9.26
-2.32,-5.36,6.27,-34.08,31.89,8.55
-2.63,-3.52,6.05,-18.84,23.23,19.65
-3.33,-1.67,5.75,-9.45,13.78,2.27
-2.97,-0.44,5.45,3.48,9.7,-14.01
-2.49,0.12,4.96,12.08,10.43,-17.67
-1.72,1.44,3.78,35.25,9.15,-23.46
-1.31,4.5,4.02,66.71,-25.85,-18.1
0.24,7.46,4.83,103.42,-51.83,-11.21
2.33,8.88,8.66,127.26,-37.56,-18.46
2.83,10.63,11.96,138.91,29.45,-17.3
0.2,11.08,15.67,104.46,62.26,-14.68
-1.51,6.81,15.93,34.82,-40.73,-40.6
2.19,2.16,13.19,-16.95,-152.8,-59.8
7.98,1.01,8.32,-35.12,-96.1,-21.15
6.83,0.65,6.43,0.74,72.81,29.34
-0.15,1.31,8.32,21.16,110.18,43.73
-3.62,2.05,9.71,0.13,42.32,22.15
-2.87,1.13,7.44,-13.71,12.93,14.04
-2.05,0.05,5.78,0.61,17.93,5.44
-1.63,0.19,6.53,16.41,12.07,5.68
-1.67,0.5,8.57,18.3,2.44,12.94
-1.63,0.51,9.52,13.36,-6.34,15.32
-1.53,0.25,9.49,9.21,0.25,14.65
-1.49,0.12,9.54,4.88,4.39,16.66
-1.4,-0.21,9.49,4.03,11.95,19.22
-1.5,0.21,9.56,0.8,16.71,23.61
-1.81,0.39,9.76,-3.78,7.32,23.55
-1.34,0.04,9.25,-1.28,4.57,22.21
-1.22,0.25,9.63,5.86,13.78,18
-1.17,1.46,10.38,7.32,17.01,7.82
-0.53,3.57,11.5,-21.03,-2.07,10.8
1.09,3.21,10.05,-42.07,-12.93,13
2.37,1.95,8.38,-23.71,7.32,15.99
1.9,2.14,8.59,0.98,29.03,21.9
0.11,3.55,9.05,27.57,39.15,24.4
-0.98,6.11,9.95,21.53,34.09,13.91
-0.61,5.86,8.8,-5.18,15.92,8.85
0.68,4.24,7.55,-6.76,2.38,7.63
2,3.1,8.21,-1.34,20.85,23.3
0.76,4.42,9.22,-21.15,78.84,41.9
-2.88,4.52,9.26,-50.54,89.45,38.85
-4.8,3.08,7.87,-58.17,33.48,8.61
-2.49,1.34,7.11,-55.91,-42.62,-2
0.22,-0.76,7.58,-44.63,-41.46,23.91
-1.08,-0.3,8.4,-42.8,-16.1,41.96
-3.22,1.36,9.61,-33.47,-7.68,36.17
-2.76,-0.55,8.32,-39.08,3.23,20.44
-2.75,-2.68,8.2,-30.85,-17.38,13.85
-1.8,-3.22,8.01,-23.53,-35,18.49
-1.1,-4.6,7.42,-11.89,-32.68,27.45
-1.23,-4.28,7.33,-3.59,-16.58,41.11
-2.59,-5.95,7.9,3.85,-6.52,26.9
-3,-6.63,7.99,2.63,-22.25,22.09
-2.39,-7.96,7.45,11.41,-37.62,21.9
-1.66,-8.06,6.9,24.52,-37.25,28.3
-1.83,-7,7.62,42.81,-34.57,31.29
-2,-5.96,8.94,40,-32.13,33
-2.31,-5.6,9.7,36.04,-19.75,24.46
-2.57,-5.76,9.31,29.52,-10.91,13.24
-2.74,-5.45,9.22,28.36,-14.27,10.5
-2.41,-5.07,8.93,30.8,-25.97,12.39
-1.43,-4.24,9.9,35.13,-35.73,20.8
-0.96,-3.49,10.3,32.69,-35.61,30.26
-1.21,-2.54,10.66,18.05,-16.04,19.71
-1.34,-2.64,10.01,2.87,17.38,4.04
-1.61,-2.97,9.4,-5.42,35.37,-5.35
-1.64,-3.28,8.61,-0.36,26.46,1.66
-1.4,-2.93,8.62,9.94,5.06,17.88
-1.14,-2.12,8.95,12.32,-17.56,27.57
-1.11,-1.39,9.3,5.07,-21.28,18.85
-0.73,-0.88,9.99,-9.57,7.5,3.91
-0.57,-1.51,8.95,-16.09,33.23,-4.13
-0.78,-2.03,8.2,-16.09,45.06,-7.73
-1.01,-2.4,7.73,-10,26.59,1.35
-0.79,-2.25,7.42,1.9,11.59,10.68
-0.84,-1.89,7.97,7.08,1.1,14.89
-0.86,-0.93,8.74,3.72,2.38,10.01
-0.51,-1.01,8.83,-1.52,10.79,3.49
-0.24,-1.29,8.92,-1.34,17.38,4.71
-0.43,-1.56,8.5,-0.85,17.38,9.34
-0.59,-1.46,8.32,0.98,8.9,11.9
-0.45,-1.43,8.35,-0.42,2.38,12.39
-0.34,-1.17,8.68,-0.12,-2.38,13.43
-0.14,-1.08,8.98,2.14,10.49,13.85
-0.44,-1.13,9.04,2.08,20.73,16.17
-0.91,-1.3,8.94,2.63,24.15,18.43
-1.06,-1.56,8.47,2.38,21.53,19.1
-1.25,-1.97,8.45,2.69,13.66,19.1
-1.11,-1.66,8.88,1.83,8.72,15.07
-1.3,-0.89,9.24,-0.18,0.43,11.6
-1.33,-0.89,9.01,-0.42,-0.55,5.8
-0.54,-0.81,8.98,-2.01,8.54,4.28
-0.56,-1.44,8.75,-3.17,15,8.3
