aX,aY,aZ,gX,gY,gZ
-6.78,-12.03,1.23,13.59,4.91,1.77
-7.65,-5.58,2.22,7.62,4.48,4.08
-7.36,-5.65,2.13,4.87,3.57,5.42
-7.21,-5.42,2.19,1.09,2.17,6.03
-7.04,-5.35,2.05,-3.12,0.09,9.75
-7.1,-5.74,1.92,-2.93,1.19,11.77
-7.23,-5.67,1.75,-2.87,0.58,13.59
-7.51,-5.56,2.08,-3.12,-2.47,12.07
-7.72,-5.27,2.55,-9.15,-3.26,6.83
-7.88,-5.32,2.63,-19.7,0.58,-3.54
-7.7,-5.25,2.28,-21.47,1.01,-8.17
-7.46,-5,2.07,-18.91,1.68,-1.65
-6.17,-4.59,1.56,-11.53,2.72,11.4
-7.41,-5.21,1.73,-7.99,3.51,8.66
-7.53,-5.51,2.07,-5.31,2.17,4.88
-7.52,-5.42,1.95,-3.36,6.01,4.63
-7.79,-5.64,2.01,1.03,6.25,-2.56
-7.65,-5.4,1.95,0.79,2.96,-3.23
-7.65,-5.36,1.98,-0.01,4.18,-1.1
-7.55,-5.37,2.04,0.05,4.55,1.16
-7.9,-5.42,1.98,-1.96,7.17,-0.37
-8.04,-5.61,2.03,-2.75,10.34,-3.17
-8.39,-5.48,1.76,-0.19,12.72,-6.22
-8.69,-5.54,1.75,-1.04,18.81,-13.29
-8.93,-5.65,1.89,-3.73,23.57,-17.87
-9.3,-5.47,1.99,-4.88,25.22,-23.54
-9.6,-5.36,2.15,-5.49,24.85,-31.22
-10.19,-5.65,2.12,-5.01,24.61,-39.88
-10.51,-5.43,1.79,-0.86,26.19,-45.49
-11.05,-4.99,1.7,1.21,31.92,-57.75
-11.25,-5.13,1.8,-2.87,31.8,-69.88
-10.95,-5.3,1.46,-8.3,23.69,-86.71
-10.47,-5.17,1.03,-9.52,14.67,-100.73
-10.02,-5.35,0.43,-5.49,21.07,-118.48
-9.84,-4.94,0.53,1.34,26.86,-131.46
-9.92,-4.57,0.9,1.95,19.54,-144.27
-9.47,-4.61,0.56,-2.02,11.86,-159.45
-8.8,-4.69,0.73,1.7,6.19,-174.33
-7.65,-5.34,0.74,2.74,-2.28,-191.22
-6.4,-5.23,0.62,6.82,-9.66,-192.56
-5.88,-5.61,0.98,10.91,-24.6,-183.72
-5.58,-5.54,1.1,13.59,-21.67,-192.99
-4.38,-5.42,1.29,16.27,-8.87,-196.83
-3.37,-5.44,1.41,16.34,7.65,-198.72
-2.7,-5.67,1.64,7.68,11.07,-198.42
-1.92,-5.92,1.11,5.66,4.24,-197.68
-0.45,-6.75,0.66,11.34,-9.54,-191.83
0.02,-6.61,1.04,12.13,-15.27,-180
0.39,-6.38,1.51,11.4,-17.34,-177.99
0.84,-5.7,1.65,9.99,-17.16,-178.9
1.91,-6.55,1.22,12.19,-12.83,-189.45
3.22,-6.42,1.1,6.03,-6,-190
4.03,-6.45,1.06,6.76,-13.99,-177.44
4.98,-6.9,0.61,10.12,-16.92,-160
5.84,-6.89,0.83,17.62,4.06,-147.68
6.25,-6.68,1.36,17.25,23.63,-133.11
5.46,-7.52,1.46,18.84,19.79,-129.51
6.1,-8.18,1.31,26.34,-7.22,-132.81
7.77,-7.82,1.7,27.55,-13.44,-121.95
8.6,-7.71,2.26,22.74,16.62,-103.36
8.35,-7.99,2.73,17.13,36.8,-83.05
7.41,-8.26,2.38,20.54,40.09,-77.68
6.71,-8.89,2.48,28.04,12.9,-78.9
7.25,-8.76,2.18,36.82,-5.58,-82.07
8.37,-8.54,2.95,25.42,-6.43,-70
9.18,-8.52,3.25,19.26,0.58,-44.27
8.62,-8.79,3.17,14.08,11.92,-27.93
7.53,-8.87,3.14,13.77,16.01,-27.32
7.5,-9.01,2.79,14.63,9.85,-25.67
7.64,-8.68,3.37,8.65,-5.09,-20.73
8.5,-8.46,3.36,7.13,-6.31,-7.87
9,-8.32,3.57,3.84,12.17,5.55
8.85,-8.58,3.37,2.01,25.7,19.63
8.3,-8.54,3.27,1.46,24,29.14
8.08,-8.69,3.21,0.91,15.83,32.31
8.37,-8.43,3.46,-0.07,11.8,40.55
8.89,-8.46,3.52,-4.09,19.42,52.56
8.99,-8.43,3.62,-9.58,26.44,70.73
8.79,-8.27,3.52,-14.27,35.09,86.76
8.34,-8.51,3.37,-15.43,39.06,99.75
7.96,-8.38,3.45,-11.53,36.56,110.06
8.05,-8.51,3.33,-2.75,36.37,118.65
7.88,-7.87,3.52,-2.32,41.92,131.76
7.35,-7.25,4.09,-20.55,31.8,150.36
6.94,-7.49,3.44,-30.37,16.13,166.34
6.67,-7.47,2.73,-31.1,13.69,177.68
6.13,-7.34,2.23,-27.08,20.89,185.97
4.99,-7.37,2.3,-20.25,20.95,196.82
3.85,-6.82,2.83,-14.94,11.5,200.91
2.81,-6.04,3.39,-18.12,6.13,202.25
1.88,-5.56,3.64,-23.3,6.62,203.17
1.55,-5.62,3.55,-32.63,10.58,205.91
0.79,-5.26,3.89,-42.44,10.4,208.65
0.26,-4.59,3.56,-52.57,-1.06,218.35
0,-4.42,2.86,-55.62,-8.87,225.85
-0.75,-3.98,2.52,-58.24,-7.16,230.3
-1.73,-3.34,2.03,-57.44,0.28,234.87
-3.24,-2.67,1.74,-60.98,9.06,225.36
-3.84,-2.18,1.38,-61.16,6.25,224.57
-4,-2.01,0.89,-60.98,-10.76,224.69
-4.65,-1.48,0.54,-68.05,-24.3,230.91
-5.35,-1.41,-0.44,-56.83,-20.94,235.6
-7.02,-0.55,-0.16,-45.55,-20.58,227.92
-8.42,-0.86,1.33,-30.55,-41.31,202.5
-8.46,-0.95,0.75,-32.38,-69.91,188.11
-8.65,-0.89,-0.37,-24.64,-63.81,185.12
-10.58,-1.42,-0.15,-5.49,-51.49,177.31
-12.03,-1.27,0.81,8.41,-61.37,150.36
-12.77,-1.28,1.5,4.02,-61.49,132.01
-13.7,-1.44,1.6,9.51,-47.95,115.18
-15.1,-2.05,1.67,13.04,-35.39,95.61
-15.46,-2.22,1.6,21.4,-36.98,73.35
-15.59,-2.22,2.41,18.53,-48.08,54.75
-15.72,-2.61,2.75,18.47,-58.5,34.02
-14.77,-3.05,2.84,29.26,-64.6,14.51
-13.72,-2.91,3.33,21.4,-48.63,-0.12
-13.06,-2.94,3.84,22.01,-38.26,-8.3
-12.45,-2.77,3.75,14.63,-36.92,-19.27
-11.28,-2.93,3.6,9.32,-38.38,-27.93
-9.97,-3.18,3.15,5.24,-31.37,-31.95
-8.66,-3.21,2.98,7.98,-16.55,-26.4
-8.32,-3.25,2.57,9.38,-0.27,-19.03
-8.46,-3.33,2.64,6.88,5.58,-19.88
-8.48,-3.43,2.69,5.6,0.58,-22.62
-7.94,-3.33,2.75,5.54,-3.08,-22.62
-7.61,-3.42,2.9,4.45,-1,-16.47
-7.33,-3.52,2.94,5.85,7.47,-11.59
-7.72,-3.46,3.17,6.46,13.94,-7.75
-7.92,-3.48,3.41,2.49,10.46,-7.5
-7.98,-3.72,3.19,3.1,1.07,-8.36
-7.55,-3.81,3.34,1.82,-2.95,-8.42
-7.32,-3.88,3.29,0.05,-2.65,-5.37
-7.44,-3.94,3.39,0.91,6.86,-6.89
-7.5,-3.7,3.64,0.36,9.3,-6.95
-7.82,-3.67,3.15,-1.41,6.8,-4.15
-7.71,-3.74,2.82,-0.68,3.02,-4.27
-7.57,-3.94,2.77,0.85,0.95,-2.56
-7.58,-3.74,2.89,1.88,5.03,-0.49
-7.8,-3.53,3.13,-0.55,8.33,-2.14
-8.02,-3.62,3.25,-0.25,4.55,-2.32
-6.02,-15.49,0.7,33.47,20.09,-6.53
-8.01,-3.72,3.19,3.71,7.29,-6.71
-7.88,-3.83,3.24,-0.31,3.39,-4.88
-7.66,-4.22,2.93,-5.74,3.2,-0.06
-7.39,-4.27,2.97,-9.46,2.23,6.58
-7.72,-4.07,2.87,-11.1,3.08,7.56
-7.98,-4.04,2.87,-16.65,2.11,2.44
-8.08,-4.17,2.84,-20.43,1.5,-2.26
-8,-4.03,2.87,-23.18,-0.76,-5.25
-8.06,-3.98,2.83,-23.97,2.53,-5.55
-7.95,-3.95,2.79,-20.31,7.53,-1.47
-8.22,-4.13,2.77,-17.32,9.42,4.63
-8.48,-4.46,2.85,-15.37,12.35,-0.92
-9.03,-4.28,2.45,-12.63,15.76,-4.88
-8.97,-4.36,2.3,-3.97,14.54,-6.53
-9.04,-4.15,2.6,-2.51,16.86,-6.53
-9.71,-4.33,2.37,-2.2,19.67,-13.17
-10.14,-4.07,2.62,-4.4,18.14,-19.15
-10.51,-4.25,2.54,-8.91,15.89,-24.03
-10.57,-4.51,2.57,-10.55,22.17,-28.78
-10.94,-4.53,2.24,-9.95,38.33,-32.38
-11.77,-4.2,2.2,-10.07,54.06,-39.33
-12.57,-3.95,1.98,-6.53,53.02,-52.87
-12.76,-3.96,1.63,-5.37,32.35,-72.68
-12.25,-3.99,1.29,-4.21,16.5,-97.93
-11.46,-3.63,1.39,-4.09,0.89,-116.1
-10.62,-3.68,1.46,-6.96,-6.67,-133.42
-9.96,-3.38,1.45,-6.29,-3.26,-144.94
-9.58,-3.42,1.45,-3.6,-0.52,-158.72
-8.95,-3.22,1.77,-3.48,-2.77,-172.13
-8.02,-3.36,1.63,-0.98,-14.36,-177.99
-7.09,-3.68,1.42,-0.31,-21.43,-182.56
-6,-3.94,1.12,5.18,-15.52,-183.17
-5.42,-4,1.25,9.63,-5.03,-183.05
-4.97,-4.4,1.54,17.74,1.07,-178.35
-4.67,-4.42,1.55,19.57,5.58,-172.2
-4.08,-4.83,1.75,19.75,3.94,-172.32
-3.25,-5.04,2.22,21.64,-0.64,-169.15
-2.22,-5.59,2.05,22.74,2.65,-170.61
-1.86,-5.57,2.34,22.13,9.73,-169.03
-1.21,-5.98,2.33,23.35,4.48,-168.35
-0.1,-6.1,2.31,23.96,-2.41,-166.16
1.45,-6.56,2.17,26.15,4.85,-155.31
1.95,-6.49,2.45,26.34,21.01,-137.56
1.3,-6.7,2.39,24.26,23.81,-130.18
0.92,-6.95,2.21,23.77,1.37,-136.77
1.41,-7.11,1.75,19.26,-26.8,-141.16
2.89,-7.58,1.1,23.16,-31.49,-142.38
4.09,-7.48,1.91,26.46,-12.22,-129.27
3.02,-7.39,2.64,17.86,-23.02,-125.37
1.4,-7.55,1.85,9.87,-72.53,-148.35
2.09,-7.26,1.13,8.96,-105.64,-178.72
4.85,-7.29,1.57,6.88,-92.65,-188.54
7.35,-7.71,2.23,10.73,-55.88,-167.26
6.99,-7.72,2.84,7.01,-38.99,-147.62
7.43,-8.11,3.04,12.01,-32.53,-132.44
7.62,-8.14,3,9.32,-23.26,-120.92
8.52,-8.56,3.38,6.88,-17.53,-106.71
9.46,-8.97,3.05,11.95,-15.7,-90.43
9.73,-9.04,3.65,19.63,-6.98,-70.31
9.54,-9.02,3.77,20.79,-5.94,-53.9
8.98,-9.21,3.37,20.18,-7.04,-40.86
9.11,-9.14,3.78,14.08,1.62,-27.75
9.18,-9.06,3.82,11.58,16.5,-10.43
8.65,-9.29,3.78,10.6,24.85,3.72
7.39,-9.01,3.94,5.42,17.96,9.2
6.54,-8.93,3.81,-0.74,-5.58,9.45
6.57,-8.82,4.01,-10.07,-20.09,6.83
7.45,-8.78,3.39,-12.38,-11.13,14.81
7.68,-8.82,3.16,-9.64,7.96,23.53
7.48,-8.81,2.86,-5.25,17.59,31.16
7.21,-8.68,3.03,-4.34,14.97,37.62
7.37,-8.44,3.19,-6.65,15.03,45.36
7.65,-8.33,3.16,-10.86,17.96,57.31
7.18,-8.35,3.01,-12.26,17.59,65.18
7.47,-8.37,2.84,-9.88,11.74,67.98
7.97,-8.43,2.77,-5.86,19,77.74
8.16,-7.87,2.71,-4.64,44.79,95.18
7.02,-7.68,3.35,-13.79,52.59,116.7
6.34,-8.09,2.6,-11.41,45.7,121.76
6.31,-7.97,2.78,-4.76,38.51,131.4
5.93,-8.16,2.81,1.7,39.97,142.5
5.36,-8.12,2.98,6.76,60.89,146.46
4.54,-7.32,3.99,4.38,74.73,147.62
4.31,-7.07,4.34,-11.04,67.17,158.47
3.52,-7.04,3.91,-22.81,45.22,168.17
2.75,-7.19,3.32,-28.6,26.8,175.06
2.07,-7.28,2.91,-27.87,23.94,178.65
0.96,-7.03,2.75,-20.8,20.22,173.59
0.97,-6.84,2.65,-17.81,13.33,172.5
0.84,-6.38,2.86,-17.26,12.23,182.19
0.43,-6.19,2.68,-21.65,23.75,199.08
-1.28,-5.71,2.68,-21.9,19.12,208.65
-2.44,-4.98,2.71,-24.34,-3.08,200.24
-2.59,-4.86,2.32,-27.2,-19.6,187.5
-2.03,-4.61,1.77,-25.86,-18.2,191.64
-2.59,-4.26,1.64,-21.96,6.13,201.15
-4.1,-3.5,2.01,-20.43,20.34,207.56
-5.88,-3.41,1.22,-17.69,-2.47,195.54
-6.18,-3.18,1.12,-16.9,-31.13,178.23
-6.08,-3.14,1.17,-14.58,-40.7,160.85
-5.65,-3.16,1.07,-6.84,-16.86,157.44
-5.56,-3.28,0.91,7.13,15.22,162.8
-6.85,-3.34,1.54,16.52,17.9,165
-7.87,-2.66,1.59,18.84,-0.15,153.04
-8.58,-2.26,2.33,12.19,-16.31,141.89
-8.94,-2.53,1.99,10.54,-18.14,127.98
-8.8,-2.86,2.11,13.65,-23.5,117.01
-8.37,-2.87,2.21,16.94,-27.41,119.75
-9,-2.79,2.13,23.77,-14.84,125.24
-10.9,-2.26,2.4,28.77,8.51,116.95
-12.37,-2.07,2.87,26.7,15.15,96.03
-13.09,-2.45,2.87,22.07,-8.32,71.77
-13.12,-2.21,3.17,16.76,-35.03,51.89
-12.63,-2.56,3.28,15.36,-38.02,41.64
-12.1,-2.37,3.28,16.21,-13.87,35
-11.92,-2.48,3.45,18.23,16.68,27.74
-12.38,-2.53,3.5,18.84,26.92,17.13
-12.5,-2.52,3.55,14.75,9.24,5.49
-11.88,-2.55,3.38,9.69,-9.72,0.06
-11.38,-2.61,3.09,7.01,-18.02,-2.99
-10.73,-2.46,3.16,5.42,-9.05,-8.72
-9.92,-2.63,2.91,3.84,1.37,-11.28
-9.59,-2.63,2.93,5.3,6.25,-14.15
-9.16,-2.62,2.89,3.29,4.91,-15.73
-8.73,-2.84,2.82,2.8,1.37,-13.9
-8.46,-2.83,2.75,3.41,3.08,-11.83
-8.44,-2.85,2.71,2.43,5.46,-13.72
-8.3,-2.8,2.95,3.59,5.7,-15.12
-8.05,-2.77,3.13,1.58,4.48,-12.93
-7.86,-3.03,2.94,0.73,5.4,-10.49
-8.04,-3.03,2.82,1.09,7.41,-11.1
-8.2,-3.13,2.92,3.84,5.03,-14.51
-7.87,-3.15,2.96,2.43,3.75,-14.88
-7.74,-3.3,3.04,0.97,5.95,-12.44
-7.8,-3.34,3.17,0.36,6.74,-8.66
-7.97,-3.32,3.23,-1.84,3.87,-7.93
-8.15,-3.37,2.95,-2.38,-0.03,-10.43
-7.93,-3.48,2.86,-1.96,1.92,-12.08
-7.97,-3.43,2.97,0.97,6.62,-11.65
-8.74,-4.62,3.11,3.65,6.92,1.46
-7.75,-4.38,2.62,8.16,7.11,3.17
-7.9,-4.18,2.62,6.15,6.62,4.63
-8.05,-4.13,2.76,3.71,6.44,1.4
-7.97,-4.04,2.78,-0.74,4.85,-0.12
-8.2,-3.92,2.92,-9.64,1.31,-3.54
-8.27,-4,2.93,-17.99,-5.33,-6.1
-8.3,-4.19,2.73,-21.16,-6.92,-10.98
-8.09,-4,2.54,-19.46,-4.6,-12.08
-7.87,-3.87,2.56,-18.91,-2.95,-3.84
-8.14,-4.12,2.69,-21.41,-0.21,2.92
-8.47,-4.32,2.48,-21.04,2.35,6.34
-8.8,-4.43,2.44,-20.92,3.45,-0.92
-8.55,-4.3,2.38,-17.57,9.73,-4.09
-8.55,-4.52,2.31,-12.87,12.35,-6.04
-8.64,-4.39,2.23,-6.9,13.87,-5.8
-8.97,-4.24,2.33,-4.64,16.92,-5.92
-9.39,-4.05,2.18,-5.07,21.25,-10.8
-9.8,-3.98,2.25,-8.6,19.79,-14.39
-10.08,-4.08,2.12,-9.58,16.19,-21.83
-10.61,-4.12,2.18,-10.62,6.98,-31.65
-10.88,-4.09,1.79,-12.38,-0.09,-42.99
-10.81,-4.13,1.23,-11.04,1.56,-57.56
-10.73,-4,0.98,-5.49,11.8,-70.18
-10.89,-3.88,0.93,-0.31,21.37,-80.37
-11.1,-3.78,1,1.15,12.35,-95.12
-10.87,-3.94,0.89,1.76,-6.98,-110.43
-10.15,-4.09,0.7,6.52,-15.94,-127.14
-9.36,-4,1.07,9.08,-12.04,-135.73
-9.04,-4.07,1.45,8.16,-8.38,-145.37
-8.65,-4.09,1.55,10.97,-1.61,-152.74
-8.21,-4.18,1.57,16.03,-2.35,-160.37
-7.41,-4.2,1.45,18.77,-5.03,-163.11
-6.81,-4.51,1.63,21.82,-14.05,-161.89
-6.28,-4.63,1.93,24.26,-14.72,-169.94
-5.64,-4.42,1.82,24.57,-11.31,-182.99
-4.91,-4.66,1.91,21.46,-10.45,-189.7
-3.99,-5.07,1.68,21.15,-18.44,-193.29
-2.87,-5,1.75,24.44,-24.78,-191.28
-2.19,-5.15,2.42,21.58,-33.99,-180.43
-1.9,-5.64,2.19,23.53,-45.21,-175.61
-1.43,-5.8,2.19,27.01,-61.43,-174.03
-0.41,-5.6,2.47,22.92,-74.72,-172.13
0.86,-5.93,2.94,12.74,-77.16,-166.65
2.06,-6.35,2.76,11.09,-60.39,-153.17
3.15,-6.73,2.5,17.98,-24.84,-144.27
3.34,-6.79,2.42,27.25,-1.98,-132.44
3.27,-6.81,2.82,30.3,3.39,-123.84
3.29,-7.25,2.96,28.77,-8.26,-119.21
3.77,-7.84,2.69,25.36,-11.86,-120.85
4.41,-7.91,2.77,28.29,-6.25,-118.66
4.52,-8.09,3.09,41.09,6.19,-112.81
4.2,-7.87,3.36,47.49,3.51,-111.4
4.53,-8.44,3.82,49.02,-16.92,-110.12
5.61,-8.15,4.49,44.26,-23.75,-103.78
6.36,-8.39,4.83,39.44,-21.19,-94.76
6.83,-8.58,5.16,32.92,-10.39,-84.39
6.77,-8.85,5.53,28.47,-9.42,-78.11
6.86,-9.15,5.5,21.4,-20.39,-67.68
6.65,-9.35,5.35,18.29,-33.2,-60.06
7.34,-9.02,5.53,11.64,-30.09,-49.64
7.67,-9.15,5.67,7.25,-13.2,-36.04
7.6,-9.27,5.52,3.23,-0.39,-24.15
7.26,-9.26,5.47,1.58,-0.03,-12.32
6.76,-9.24,5.23,-1.47,-1.61,-4.45
6.72,-9.16,4.98,-0.37,-8.93,-1.77
6.75,-8.79,5.11,-5.92,-8.63,4.57
7.33,-8.74,4.77,-10.92,-1.25,14.45
7.61,-8.81,4.76,-10.25,11.86,30.91
7.28,-8.85,5.16,-14.7,19.06,44.88
7,-8.71,4.92,-17.87,19.85,55.36
6.98,-8.7,4.86,-18.66,19.36,61.89
7.36,-8.59,4.85,-18.42,29,71.34
7.38,-8.47,4.7,-17.63,41.37,86.4
7,-8.23,4.46,-15.43,55.03,99.33
6.58,-7.83,4.44,-14.21,69.24,112.8
6.1,-7.64,4.22,-15.74,80.4,122.68
5.55,-7.11,4.22,-20.43,77.29,131.09
5.08,-6.74,4.43,-27.57,56.01,143.11
4.85,-7.12,3.79,-26.53,48.81,151.64
4.43,-6.69,3.71,-23.36,54.61,165.3
3.67,-6.6,3.52,-16.71,67.23,176.83
2.65,-5.77,3.57,-17.99,69.67,183.59
1.96,-5.55,3.85,-22.81,59.73,192.19
1.61,-5.31,3.51,-30.13,54.48,199.2
1.18,-5.11,3.35,-35.62,57.59,212.19
0.16,-4.9,2.4,-34.76,77.11,225.48
-1.07,-4.51,2.21,-25.25,101.74,228.41
-2.03,-3.71,1.9,-22.2,116.07,231.82
-2.76,-3.17,1.5,-32.93,119.91,238.96
-3.64,-2.77,0.56,-39.76,128.75,251.28
-5.53,-2.43,0.17,-42.51,114.06,251.76
-6.69,-2.46,-0.19,-42.38,83.63,229.57
-8.36,-2.35,1.12,-48.54,49.42,207.5
-7.16,-2.29,0.25,-46.04,43.02,200.54
-7.81,-1.73,0.21,-40.43,52.84,200.18
-8.77,-1.67,1.26,-35.68,35.22,191.34
-9.86,-1.44,1.25,-40.86,-6.8,175.18
-10.63,-1.13,1.25,-45.01,-29.97,148.29
-10.26,-1.23,1.1,-42.44,-30.27,123.35
-9.58,-1.41,1.15,-40.07,-28.5,111.28
-9.26,-1.55,1.33,-34.21,-26.19,114.33
-10.14,-1.17,1.14,-36.23,-11.61,113.05
-12.02,-1.1,0.93,-29.76,-5.09,93.53
-12.36,-0.94,0.88,-25.74,-18.26,73.11
-12.16,-0.81,0.97,-23.48,-33.81,58.84
-11.87,-1.09,0.93,-21.1,-36.49,55.18
-12.22,-1.12,1.17,-20.62,-29.54,54.27
-12.64,-1.09,1.02,-14.46,-19.84,47.01
-13,-1.07,1.05,-11.47,-22.65,32.68
-12.79,-1.24,0.8,-7.45,-28.08,16.83
-12.42,-1.16,1.03,-4.03,-28.26,3.47
-11.99,-1.42,1.1,0.3,-22.41,-1.47
-11.42,-1.43,1.48,-0.07,-15.7,-1.71
-11.47,-1.49,1.8,-4.58,-16.98,-1.4
-11.27,-1.63,1.74,-4.15,-17.22,-9.58
-10.78,-1.77,1.49,-1.65,-15.64,-18.6
-10.23,-1.85,1.37,0.18,-13.69,-23.6
-9.62,-1.85,1.63,0.42,-11.67,-22.93
-9.31,-1.91,1.68,-2.38,-9.85,-18.66
-9.2,-2.12,1.54,0.05,-3.5,-19.27
-9.08,-2.11,1.56,2.19,-3.26,-18.78
-8.85,-2.23,1.62,3.96,-5.52,-20.31
-8.66,-2.12,1.6,5.85,-2.77,-21.83
-8.55,-2.22,1.99,4.63,-2.16,-19.64
-8.24,-2.33,1.84,4.69,-1.43,-14.45
-8.17,-2.41,1.9,6.09,1.37,-8.84
-8.44,-2.43,2.17,6.15,1.13,-9.7
-8.49,-2.62,2.11,6.52,0.03,-10.49
-8.58,-2.39,2.33,5.73,-0.45,-11.83
-8.6,-2.69,2.3,5.24,-4.97,-10.61
-8.55,-2.71,2.1,5.24,-9.42,-10.06
-8.35,-2.71,2.4,5.3,-4.85,-9.7
-8.16,-2.89,2.31,6.46,1.74,-6.77
-8.58,-2.71,2.64,5.36,3.26,-7.99
-8.78,-2.47,2.63,2.74,-1.8,-10.37
-8.56,-2.81,2.39,2.13,-11.19,-12.08
-8.41,-2.83,2.44,2.62,-10.58,-9.88
-8.23,-2.85,2.39,3.04,-8.14,-8.3
-8.13,-2.77,2.44,3.23,0.64,-6.95
-6.75,-11.26,1.47,30.42,24.97,-3.3
-8.52,-3.68,1.8,4.26,13.2,0.55
-8.69,-3.61,1.96,6.27,13.26,-2.2
-8.94,-3.52,2.31,-0.8,10.58,-5.19
-8.99,-3.57,2.31,-8.66,4.55,-9.88
-9.15,-3.5,2.41,-18.73,-0.15,-15.55
-9.27,-3.73,2.15,-24.27,0.15,-19.82
-9.78,-3.99,2.15,-23.12,4.12,-28.72
-10.4,-3.9,2.16,-23.73,3.87,-46.83
-10.43,-3.22,1.65,-22.57,-6.61,-53.23
-10.06,-5.03,1.17,108.77,1.13,-61.83
-10.84,-4.01,2.12,-23.05,-23.69,-51.77
-10.85,-3.87,1.58,-20.8,-21.67,-54.76
-10.61,-4.29,1.64,-10.92,-17.59,-66.83
-10.43,-4.18,1.81,-6.29,-9.42,-77.44
-10.35,-4.06,1.74,-3.91,-6.67,-83.42
-10.22,-4.08,1.51,-9.64,-9.78,-93.23
-9.62,-4.29,1.52,-8.85,-14.17,-96.28
-9.19,-4.55,1.31,-8.79,-4.3,-99.7
-8.93,-4.58,1.06,-4.58,10.22,-105.12
-8.81,-4.7,1.13,2.43,19.61,-113.6
-8.71,-4.71,1.27,5.91,15.28,-118.6
-8.59,-4.67,1.04,3.16,-2.41,-127.44
-7.94,-4.75,0.86,5.05,-4.97,-135.55
-7.4,-4.89,0.77,6.09,6.44,-143.05
-7.18,-5.02,0.71,9.38,11.68,-149.33
-7.04,-5.32,0.94,8.77,6.13,-156.77
-6.57,-5.43,1.26,10.3,-13.93,-163.54
-5.7,-5.3,1,14.08,-30.27,-168.54
-4.87,-5.12,0.95,19.2,-36.25,-168.35
-4.45,-5.3,0.91,21.46,-34.91,-172.99
-3.6,-5.29,0.73,24.32,-32.83,-175.37
-2.82,-5.48,1,24.38,-41.92,-176.89
-2.26,-5.47,1.06,16.21,-68.38,-174.63
-1.09,-5.92,0.33,22.74,-80.94,-171.46
0.01,-6.14,0.7,32.13,-74.84,-162.62
0.17,-6.15,1.57,39.81,-81.86,-155.43
0.11,-5.91,2.55,34.02,-115.21,-154.57
1.58,-6.33,2.73,23.16,-146.67,-163.42
3.78,-6.59,2.98,14.14,-140.33,-156.83
4.35,-6.77,2.51,13.04,-116.43,-145.12
3.92,-6.87,2.28,7.62,-98.2,-148.6
4.97,-7.01,2.2,0.85,-76.8,-158.66
6.77,-7.48,2.59,-4.09,-47.77,-144.64
6.76,-8.14,2.46,-1.59,-44.84,-121.77
6.14,-8.37,2.12,4.87,-40.76,-107.07
5.57,-7.96,2.22,5.36,-30.03,-106.65
5.71,-7.89,1.9,4.99,-12.65,-105.79
6.16,-8.07,2.33,7.68,-6.67,-105.86
7.05,-8.37,2.36,14.38,-9.6,-96.59
7.43,-8.51,3.09,18.35,-12.22,-83.05
7.64,-8.64,3.33,17.31,-11.25,-72.5
7.8,-8.76,3.64,17.49,4.18,-64.03
8.07,-8.97,4.03,15.36,18.57,-61.22
8.09,-9.12,3.94,14.14,14.42,-51.16
8.47,-9.06,4.13,10.73,10.52,-41.83
8.8,-9.2,4.37,7.25,11.19,-24.45
8.49,-9.27,4.49,3.53,16.01,-11.89
8.44,-9.53,4.17,-0.92,14.91,-5.73
8.54,-9.31,3.83,-3.42,10.76,1.1
8.79,-9.3,3.55,-2.14,12.17,13.29
9.03,-9.2,3.92,-2.81,15.95,29.27
9.03,-8.93,3.73,-5.37,25.83,46.4
8.85,-9.07,3.56,-9.27,32.04,62.92
8.62,-9.08,3.29,-3.73,34.54,76.64
7.84,-9.23,3.73,0.91,17.41,82.86
7.44,-9.54,3.95,8.71,-18.93,82.25
8.24,-9.07,3.69,14.63,-33.81,85.24
9.25,-8.46,3.6,15.85,0.83,104.81
9.54,-7.53,4.38,5.24,46.98,138.11
8.13,-7.31,4.78,-14.46,66.31,175.61
6.74,-7.71,3.79,-20.49,69.36,193.17
4.93,-7.64,2.96,-13.66,74.48,198.04
3.65,-7.64,2.41,4.63,80.95,187.68
2.68,-7.48,2.34,16.46,89.54,170.18
2.46,-5.66,3.61,-0.8,95.15,175.67
1.63,-5.61,4.04,-18.54,86.86,187.92
0.68,-6.03,3.02,-27.87,79.54,189.63
0.21,-6.11,2.06,-27.81,72.29,189.57
-0.31,-6.34,1.62,-19.21,81.13,182.19
-1.12,-6.24,1.44,-4.95,82.78,168.17
-1.53,-5.69,1.73,-0.19,72.65,162.43
-1.72,-4.85,1.87,-9.03,54.67,165.12
-1.85,-4.64,1.89,-17.69,36.44,176.09
-2.18,-4.78,1.59,-15.49,24.42,182.92
-2.46,-4.54,1.57,-11.59,11.19,197.62
-3.05,-4.09,1.28,-5.62,3.08,221.03
-4.72,-3.88,0.78,4.57,-3.93,229.02
-4.93,-3.65,1.54,24.99,-16.06,220.85
-4.83,-3.41,1.41,30.12,-20.88,207.98
-4.87,-2.42,2.25,27.19,2.59,197.43
-5.63,-1.87,1.9,20.79,39.91,198.04
-7.41,-1.84,1.62,30.85,51.86,196.64
-8.96,-2.12,1.51,34.69,38.14,172.86
-9.47,-1.82,1.73,37.01,11.68,134.14
-8.7,-1.24,2.01,32.55,3.75,111.89
-8.41,-1.12,2.36,32.68,28.14,114.02
-9.37,-1.84,2.42,35.97,49.06,106.89
-10.06,-1.54,2.83,40.54,47.9,96.83
-11.38,-1.2,3.44,23.9,21.44,84.51
-12.04,-0.78,3.66,10.3,-12.95,72.31
-12.09,-1.06,2.95,5.48,-18.5,58.53
-12.06,-1.3,2.9,8.71,-6.61,45.36
-11.72,-1.16,3.48,11.09,-0.58,35.67
-11.64,-1.31,3.49,8.23,-0.45,30.73
-12.12,-0.99,3.56,4.26,-7.53,28.41
-12.64,-1.31,3.2,-0.07,-10.52,13.23
-11.94,-1.38,2.91,-0.98,-13.44,0.24
-11.11,-1.43,2.75,-0.49,-8.93,-5.31
-10.51,-1.57,2.76,1.95,0.89,-6.83
-10.37,-1.39,2.98,-0.25,3.08,-6.1
-10.22,-1.65,2.63,-2.51,-5.09,-8.84
-9.77,-1.85,2.45,-2.32,-9.24,-13.42
-9.33,-1.93,2.38,-1.16,-2.04,-19.27
-8.87,-1.9,2.58,2.07,8.87,-18.29
-8.69,-2.2,2.77,2.01,11.86,-14.82
-8.82,-2.18,2.82,1.7,5.83,-10.19
-8.76,-2.24,2.91,-0.07,-2.35,-9.88
-8.39,-2.19,3.02,-2.63,-2.16,-9.94
-8.39,-2.06,2.96,-3.42,9.91,-6.83
-8.66,-2.34,2.77,-1.84,12.05,-7.14
-8.43,-2.35,2.7,-2.26,6.07,-6.34
-8.46,-2.38,2.62,-2.45,7.35,-2.75
-8.51,-2.53,2.47,-0.86,4.42,-3.66
-8.49,-2.18,2.82,-2.57,5.34,-5
-8.5,-2.43,2.75,1.09,6.68,-6.65
-8.46,-2.57,2.85,2.19,3.63,-7.32
-8.25,-2.52,2.72,1.21,-0.58,-6.95
-8.28,-2.3,2.72,3.35,-2.41,-5.43
-8.22,-2.36,2.64,2.25,-2.35,-6.28
-7.94,-2.44,2.64,2.62,1.37,-4.7
-7.94,-2.48,2.94,4.93,5.4,-0.98
-8.15,-2.33,3.01,3.53,4.24,0.24
-8.3,-2.38,2.97,0.79,-2.1,-1.59
-8.18,-2.46,2.74,-2.32,-6.55,-2.2
-8.21,-2.67,2.66,-0.98,-6.55,-1.95
-8.09,-2.61,2.63,2.43,-5.39,0.42
-8.07,-2.59,2.71,2.37,-3.81,6.28
-8.32,-2.29,2.99,1.27,-1.55,9.02
-8.62,-2.42,2.98,-0.62,-0.82,6.77
-8.76,-3.05,2.5,11.76,16.44,-0.98
-8.42,-2.83,2.57,10.3,17.11,-0.67
-8.74,-2.64,2.82,2.01,10.52,-1.95
-8.65,-2.69,2.86,-6.35,2.84,-4.09
-8.44,-2.86,2.65,-12.26,-1.25,-4.15
-8.44,-2.89,2.4,-17.38,-1.74,-6.59
-8.59,-3.19,1.93,-14.52,-1.98,-9.76
-8.67,-3.11,2.25,-14.4,0.09,-15
-8.76,-2.74,2.44,-13.79,2.47,-18.29
-8.55,-2.54,2.43,-16.29,1.62,-12.81
-8.55,-2.71,2.42,37.25,15.03,-0.92
-8.51,-3.5,2.7,-16.23,2.11,-1.34
-8.73,-3.06,2.26,-15.8,9.18,-1.95
-8.65,-3.08,2.31,-11.47,11.86,-2.93
-8.76,-3.16,2.25,-7.57,12.35,-5.19
-8.94,-2.83,2.27,-7.87,8.75,-3.11
-9.3,-3.12,2.3,-6.65,5.64,-6.65
-9.29,-2.91,2.38,-6.84,8.45,-7.99
-9.46,-2.96,2.22,-6.16,14.42,-9.39
-10.2,-2.6,2.26,-6.1,21.56,-10.37
-11.07,-2.63,2.1,-7.63,24.54,-17.62
-11.95,-2.56,2.06,-11.1,23.57,-27.62
-12.86,-2.41,2.14,-17.81,11.31,-41.4
-13.54,-2.16,2.17,-28.42,-8.14,-61.89
-13.46,-2.06,1.94,-34.46,-15.94,-85.25
-12.64,-2.43,1.53,-32.44,-10.88,-104.51
-11.94,-2.37,1.58,-29.94,-1.49,-119.76
-11.37,-2.4,1.6,-34.15,-0.82,-130.06
-11.09,-2.47,1.32,-35.43,-13.14,-143.84
-10.35,-2.7,1.29,-36.41,-20.58,-157.81
-9.6,-2.62,1.43,-40.86,-17.95,-175.61
-8.82,-2.98,1.14,-42.93,-10.94,-185.79
-8.27,-3.49,0.97,-36.29,-3.2,-198.42
-7.4,-3.61,0.52,-31.04,-1,-209.27
-6.95,-3.96,0.98,-33.48,-4.42,-226.65
-6.02,-4.16,0.84,-28.42,-0.64,-234.33
-4.76,-4.3,0.67,-17.02,2.78,-227.01
-4.05,-4.55,1.01,-18.18,7.29,-222.56
-3.3,-5.07,0.93,-20.8,-0.52,-216.04
-2.14,-5.32,0.04,-12.75,1.25,-210.55
-1.49,-5.37,0.07,-4.46,3.26,-206.46
-0.67,-5.4,0.32,-5.13,6.13,-198.96
0.17,-6.34,-0.08,2.13,-1.31,-189.15
1.4,-6.54,0.02,15.12,-5.76,-171.65
2.02,-6.55,0.85,20.91,-7.22,-147.62
1.58,-6.89,1.28,22.31,-17.04,-143.23
2.12,-6.76,1.2,23.59,-17.41,-146.89
3.3,-7.33,1.1,26.4,-2.59,-147.07
4.24,-7.49,1.58,26.15,7.78,-132.01
4.05,-8.16,1.65,26.46,2.72,-116.28
3.32,-8.18,1.65,29.57,-17.59,-109.21
3,-8.14,2,26.88,-48.14,-114.21
3.61,-8.23,1.64,22.98,-60.45,-127.26
6.01,-8.74,1.97,20.79,-46,-127.44
7.22,-8.91,2.35,19.99,-21,-102.62
7.15,-9.34,2.29,21.76,-7.65,-75.18
5.91,-9.84,1.94,21.76,-26,-64.51
5.57,-9.57,2.13,20.42,-40.15,-75.12
7.16,-9.98,1.98,16.4,-40.7,-78.72
9.04,-10.21,2.42,13.29,-6.49,-56.1
9.27,-10.57,2.38,16.21,17.78,-22.5
7.74,-10.74,2.57,15.97,25.58,-4.51
6.75,-10.91,2.43,17.25,13.69,-1.65
6.39,-10.49,2.68,10.24,-5.64,-7.99
7.27,-10.71,2.67,6.03,-14.6,-7.2
7.95,-10.65,2.91,-1.29,-5.58,10.61
7.49,-10.63,2.81,-5.19,2.35,27.31
6.76,-10.46,2.59,-8.36,0.34,34.69
6.19,-10.38,2.2,-9.09,-6.92,37.62
6.65,-10.22,2.35,-12.57,-1.92,42.98
7.11,-10.3,1.86,-8.3,8.57,56.58
7.2,-9.6,2.13,-8.48,18.2,73.72
6.84,-9.33,1.99,-11.77,21.56,90.67
6.73,-9.55,1.67,-6.16,27.23,102.62
6.73,-9.26,1.88,-1.77,43.57,113.96
6.57,-8.66,2.35,-3.97,62.59,131.03
5.87,-8.25,2.96,-13.3,80.15,153.17
5.07,-8.18,2.41,-13.24,87.65,170.24
4.06,-8.11,2.62,-17.2,81.74,182.01
3.32,-8.16,2.36,-16.04,68.81,179.45
2.6,-7.89,2.55,-15.49,60.46,177.98
1.71,-7.73,2.38,-14.03,45.4,175.61
1.13,-7.28,2.57,-17.63,18.75,167.07
1.06,-7.22,2.47,-23.36,-5.39,161.15
1.26,-7.17,2.37,-17.2,-7.83,164.08
0.92,-6.75,1.96,-11.23,0.28,175.97
-0.33,-6.7,1.72,6.4,-3.38,177.19
-0.9,-5.8,1.19,18.1,-8.99,170.24
-1.38,-4.24,2.04,9.02,-8.14,171.22
-1.84,-3.78,2.61,-10.19,-13.93,174.69
-2.12,-3.41,1.43,-10.92,-1.61,192.13
-3.01,-3.36,0.18,-6.53,27.96,204.02
-3.91,-3.98,-0.3,27.37,47.04,210.61
-4.96,-3.28,0.57,43.9,40.28,197.5
-6.34,-1.28,1.79,7.8,-6,173.35
-7.84,-0.67,2.43,-19.7,-44.72,170.3
-7.48,-2.03,1.31,-29.4,-40.7,160.67
-6.57,-2.44,0.53,-14.21,-19.36,164.51
-6.49,-2.64,0.3,8.77,-2.47,174.69
-8.13,-1.55,1.28,17.37,27.35,180.73
-10.35,-0.53,2.75,12.62,37.04,173.72
-12.06,-0.83,2.83,-9.21,6.44,151.7
-11.6,-1.41,1.73,-12.08,-31.86,135.73
-10.69,-1.77,1.01,-4.15,-34.91,132.37
-11.17,-1.3,1.34,7.01,9.18,129.57
-12.8,-0.42,1.96,7.31,39.91,116.83
-14.86,-0.32,2.2,-0.01,19.91,95.24
-15.13,-0.81,1.54,-5.86,-22.53,67.13
-14.18,-1.04,1.15,-1.53,-36.98,52.74
-13.4,-1.01,1.28,5.24,-18.87,43.78
-13.62,-0.98,1.88,5.48,4.55,30.55
-13.7,-1.05,1.81,5.6,7.47,16.95
-13.16,-1.23,1.95,4.14,-6.61,3.72
-12.1,-1.39,1.83,2.74,-20.58,-2.56
-11.16,-1.75,1.64,3.77,-18.69,-8.36
-10.5,-1.73,1.75,5.91,-5.94,-13.42
-10.02,-1.81,1.76,8.29,8.33,-14.64
-9.77,-1.8,1.76,7.37,9.91,-15.37
-9.64,-1.9,1.79,4.57,2.72,-15.79
-9.15,-2.04,1.87,3.53,-4.97,-18.97
-8.6,-2.2,1.84,5.24,-1,-20.43
-8.23,-2.25,2.06,8.41,6.37,-17.93
-8.43,-2.19,2.3,8.65,11.13,-17.81
-8.41,-2.45,1.96,8.65,5.46,-17.32
-8.21,-2.6,1.82,8.71,-1.31,-18.72
-8.04,-2.45,2.07,9.63,-0.76,-15.19
-8.17,-2.59,2.26,8.47,-1.31,-13.6
-8.38,-2.56,2.51,5.3,-2.47,-14.39
-8.16,-2.58,2.27,3.59,-0.52,-13.17
-8.19,-2.6,2.44,2.8,7.35,-10.31
-8.52,-2.89,2.29,2.62,7.23,-9.15
-8.67,-2.78,2.56,1.88,-2.35,-8.48
-8.54,-2.75,2.42,-0.31,-5.39,-8.78
-8.26,-2.65,2.26,0.48,0.22,-7.5
-8.45,-2.78,2.34,-0.62,5.4,-5.73
-8.7,-2.79,2.21,-2.08,1.37,-5.92
-8.65,-2.68,2.24,-2.93,-3.32,-7.56
-8.46,-2.68,2.19,-4.4,-3.56,-6.95
-8.34,-2.72,1.95,-4.7,-1.61,-4.7
-8.68,-2.62,2.09,-4.4,3.39,-1.28
-7.55,-3.3,1.51,1.34,4.61,-2.62
-8.25,-3.52,1.8,7.07,6.07,-0.25
-8.55,-3.26,1.76,5.85,9.91,-0.25
-8.75,-3.24,1.81,4.81,6.62,-3.78
-8.6,-3.35,1.78,0.54,0.15,-4.27
-8.45,-3.36,1.81,-4.52,-3.99,-5.12
-8.5,-3.46,1.67,-5.86,-4.42,-6.34
-8.75,-3.33,1.98,-8.73,-5.58,-12.08
-8.9,-3.41,1.9,-10.62,-7.77,-18.66
-8.69,-3.23,1.89,-13.36,-9.72,-16.83
-8.6,-2.75,1.92,-21.71,-6.74,-3.6
-8.6,-3.69,1.82,-20.55,-2.89,4.57
-9.25,-3.69,1.22,-18.05,3.69,10.91
-9.11,-3.24,1.6,-15.98,10.89,4.88
-9.44,-3.82,1.71,-8.97,11.86,1.46
-9.66,-3.53,1.88,-3.48,10.76,-3.05
-9.97,-3.16,2.03,-4.09,7.78,-6.89
-10.31,-3.07,1.99,-7.38,4.73,-11.83
-10.34,-3.17,1.86,-9.46,7.96,-14.76
-10.51,-3.42,1.72,-9.21,13.33,-18.9
-10.9,-3.27,1.64,-8.66,13.57,-23.66
-11.07,-3.47,1.44,-8.42,7.29,-31.4
-11.3,-3.35,1.57,-8.97,0.64,-40.18
-11.35,-3.34,1.56,-8.48,-4.97,-52.2
-11.07,-3.18,1.48,-7.45,-7.35,-61.59
-11.03,-3.25,1.43,-10.62,-13.81,-74.09
-10.89,-3.31,1.44,-10.74,-13.32,-87.87
-10.66,-3.25,1.31,-10.25,-10.09,-98.42
-10.47,-3.23,0.88,-10.07,-13.14,-108.66
-10.17,-3.45,0.56,-9.03,-23.44,-122.99
-9.61,-3.4,0.54,-5.92,-26.13,-136.4
-8.93,-3.72,0.53,-3.3,-25.15,-145.98
-8.32,-3.65,0.68,0.79,-24.11,-151.22
-7.91,-3.7,0.48,-0.19,-21.74,-153.17
-7.72,-3.89,0.71,-0.74,-16.13,-159.76
-7.11,-3.96,0.62,5.05,-3.44,-164.7
-6.61,-4.01,0.86,10.85,10.58,-171.1
-6,-4.33,1.01,12.25,7.47,-176.28
-4.97,-4.75,1.11,13.59,3.87,-179.45
-4.66,-4.41,2.11,7.98,11.86,-188.29
-4.03,-4.32,2.06,2.98,26.62,-188.54
-3.04,-5.08,1.4,2.13,30.03,-181.95
-2.54,-5.27,1.14,4.57,28.87,-170.49
-2.26,-5.75,1,12.86,29.54,-162.2
-1.94,-5.89,1.09,25.73,36.68,-159.03
-1.39,-6.13,1.1,31.64,34.85,-157.56
-1.1,-6.36,1.58,33.47,8.75,-152.62
0.02,-6.84,1.35,32.31,-18.93,-144.15
0.45,-7.43,1.24,41.58,-35.94,-139.03
0.65,-6.22,1.92,40.42,-47.77,-140
1.08,-6.69,1.56,34.2,-74.72,-145.43
3.4,-7.76,0.72,39.69,-71.06,-140.31
4.65,-7.7,1.62,41.82,-49.23,-121.46
4.21,-7.68,2.71,37.62,-56.8,-107.93
3.54,-7.88,3.13,34.38,-76.55,-111.4
5.38,-8.63,2.57,32.49,-80.82,-116.46
7.5,-8.97,3,32.8,-46,-100.25
7.24,-9.26,3.75,36.09,-14.6,-75.25
5.95,-9.68,4.44,30.42,-37.83,-72.44
5.91,-9.97,4.12,20.36,-60.52,-82.26
7.12,-9.94,3.94,14.81,-50.21,-84.57
8.19,-10.35,4.5,12.37,-23.63,-72.01
8.56,-10.68,4.53,10.12,-2.89,-48.6
7.72,-10.97,4.47,8.29,-1.61,-31.16
7.04,-10.99,4.39,2.74,-17.71,-26.47
7.55,-11.24,4.15,-2.38,-20.39,-18.84
8.51,-11.21,3.71,-4.4,8.26,0.67
7.85,-11.15,3.39,-1.71,22.72,19.02
7.21,-10.96,3.55,-3.91,23.26,31.16
6.77,-10.79,3.58,-6.71,10.09,39.69
7.02,-10.6,3.19,-5.13,10.83,48.29
7.32,-10.21,3.44,-10.13,23.57,59.08
7.23,-10.15,3.49,-7.14,39,75.85
6.19,-10.02,3.83,-6.1,28.57,81.22
6.34,-9.73,3.31,-5.74,27.41,82.92
7.54,-9.4,2.52,2.92,60.46,90.67
7.75,-8.74,2.82,18.96,98.32,107.68
7.48,-7.28,3.67,18.77,110.95,129.69
5.97,-6.23,4.41,-2.02,64.67,154.81
4.47,-6.48,3.99,-26.1,11.5,165.85
4.8,-7.07,2.75,-23.36,8.51,167.37
4.49,-6.37,2.86,-12.57,35.09,178.17
3.04,-5.84,2.83,-4.82,53.14,186.89
0.21,-4.99,3.52,-5.19,38.63,196.09
-1.75,-4.83,2.94,-13.79,6.37,192.25
-2.19,-5.13,2.11,-12.51,-21.37,175.06
-1.08,-5.31,1.46,-7.81,-23.14,163.29
-0.91,-4.93,1.37,-1.1,4.06,170.91
-1.87,-4.63,1.71,10.73,40.46,187.92
-4.22,-4.07,2.39,10.42,49.3,186.46
-5.17,-3.66,1.87,6.34,31.07,177.13
-4.56,-4.01,1.49,6.7,2.29,166.52
-3.38,-4.1,1,4.32,11.19,167.13
-3.58,-3.18,1.17,13.47,59.61,188.84
-6.57,-2.36,2.6,12.92,84.61,196.46
-7.56,-2.18,2.74,-0.68,43.57,184.69
-7.07,-2.67,1.74,-9.58,-9.36,166.03
-6.28,-2.66,1.34,0.18,-21.74,157.8
-5.59,-2.23,1.83,11.76,8.63,165
-7.38,-1.4,3.73,-0.13,50.95,168.23
-9.56,-1.38,3.19,-9.7,47.9,161.83
-10.8,-1.88,2.03,-12.81,3.14,145.06
-10.43,-1.84,1.48,-6.84,-37.47,135.18
-9.74,-1.58,1.05,-1.16,-37.47,130.97
-10.66,-1.27,1.63,1.64,0.34,121.83
-12.18,-1.35,2.33,2.19,17.29,106.28
-13.24,-1.34,2.45,0.97,-2.16,86.95
-12.79,-1.67,2.01,1.64,-21.37,73.66
-12.11,-1.9,1.89,7.62,-15.27,63.78
-12.09,-1.59,1.93,13.47,7.11,58.35
-12.92,-1.32,2.66,13.53,15.52,47.68
-13.6,-1.47,3.21,8.96,5.09,27.62
-13.07,-1.42,3.1,7.01,-12.28,12.25
-11.87,-1.55,3.21,4.87,-15.09,6.1
-11.51,-1.73,3.14,8.53,-9.17,1.1
-10.75,-1.65,3.29,8.71,-0.7,-3.23
-10.37,-1.71,3.21,9.14,2.78,-5.43
-10.12,-1.78,3.08,6.64,0.22,-9.82
-9.56,-1.9,2.79,6.46,-6.74,-12.26
-8.84,-1.87,2.78,4.2,-10.15,-12.01
-8.42,-1.9,2.91,2.13,-0.03,-10.73
-8.05,-2.1,2.85,0.85,9.18,-6.53
-8.38,-1.97,2.91,1.09,13.33,-3.3
-8.65,-2.08,2.91,-1.04,7.05,-3.05
-8.5,-2.14,2.67,-0.19,-1.55,-5.98
-8.29,-2.09,2.77,0.66,-2.35,-4.94
-7.99,-2.17,2.91,-1.23,5.83,-3.6
-8.44,-2.12,2.99,0.18,11.62,-0.86
-8.52,-2.18,2.96,-0.98,9.12,-1.28
-8.63,-2.07,2.89,-2.81,7.53,-2.32
-8.55,-2.14,2.57,-1.96,-1.37,-1.89
-8.09,-2.4,2.47,-3.6,-1.06,-0.86
-8.07,-2.24,2.41,-0.49,5.95,1.77
-8.42,-2.29,2.43,-0.74,4.61,4.27
-8.76,-2.16,2.61,-3.48,-0.15,1.95
-8.87,-2.18,2.6,-2.14,-3.99,-3.6
-8.32,-2.32,2.74,-2.75,-0.45,-2.75
-8.4,-2.09,2.87,-2.2,6.56,2.25
-8.78,-2.14,2.88,-3.42,6.62,2.99
-8.98,-2.17,2.69,-4.64,2.78,1.4
-8.35,-2.82,1.11,3.96,3.2,0.85
-8.71,-2.57,2,3.71,9.55,4.02
-8.75,-2.73,2.12,2.13,6.44,1.64
-8.83,-2.77,2.22,1.15,1.44,-1.71
-8.79,-2.58,2.32,-2.38,-2.83,-2.38
-8.76,-2.53,2.25,-6.41,-2.77,-4.51
-8.83,-2.54,2.34,-12.02,-6,-6.22
-8.66,-2.96,1.93,-14.21,-7.95,-9.15
-8.68,-2.89,2.12,-13.3,-6.43,-10.67
-8.55,-2.39,1.9,-10.55,-3.93,-8.97
-8.56,-2.63,2.07,-7.81,-2.53,-4.58
-8.32,-1.35,3.55,-8.66,4.67,-0.92
-8.51,-2.49,1.93,-12.32,-0.39,0.67
-8.66,-2.88,2.3,-9.46,7.17,5.06
-8.85,-2.86,2.08,-5.55,10.15,4.51
-9.01,-3.09,1.91,-3.48,4.85,3.17
-9.07,-2.91,1.94,-1.77,2.9,1.16
-9.29,-2.73,1.96,-2.57,8.81,1.34
-9.56,-2.88,1.95,-3.85,18.26,5.49
-10.24,-3.08,2.1,-5.55,24.61,5.79
-10.83,-3.32,1.98,-6.16,29.06,1.46
-11.51,-3.11,2.53,-7.99,31.44,-2.44
-12.28,-2.96,2.51,-11.53,29.48,-13.78
-12.85,-2.8,2.04,-14.82,26.5,-25.31
-13.32,-2.66,1.4,-16.23,30.76,-39.58
-13.92,-2.53,0.65,-10.55,35.83,-56.77
-14.3,-2.42,0.67,-4.95,27.78,-77.75
-14.21,-1.96,0.58,-5.31,17.11,-100.25
-13.5,-1.87,0.41,-3.97,8.45,-121.4
-12.84,-1.9,0.32,-1.65,10.46,-137.87
-12.07,-1.92,0.17,1.34,20.64,-153.23
-12.03,-2.01,0.28,4.69,23.02,-167.56
-11.81,-2.01,0.43,6.27,7.11,-190.37
-10.73,-1.7,0.61,4.63,-5.64,-205.12
-9.77,-2.15,0.4,0.24,-8.14,-219.94
-8.87,-2.08,0.75,2.25,-13.32,-226.95
-8.05,-2.7,0.53,7.8,-23.44,-233.29
-6.97,-2.53,0.55,6.46,-30.03,-239.15
-6.16,-2.37,1.13,4.51,-43.75,-235.73
-5.47,-3.04,0.97,2.07,-52.04,-240.67
-4.48,-3.24,0.84,-0.07,-51.25,-246.28
-3.27,-3.34,1.25,-4.58,-43.32,-246.59
-2.1,-3.59,1.07,-5.62,-29.66,-243.29
-0.81,-4.11,0.83,-3.3,-27.16,-231.77
-0.37,-4.27,0.78,0.66,-28.26,-223.84
0.67,-3.9,0.82,6.09,-28.08,-215.37
2.06,-4.56,0.9,5.97,-19.72,-198.42
2.98,-4.95,1.18,6.21,0.4,-185.67
3.2,-5.1,1.37,8.71,0.64,-174.88
3.38,-5.62,0.81,14.32,-5.27,-169.88
3.82,-5.83,0.48,25.12,-6.37,-172.13
4.3,-5.39,1.09,24.51,-11.55,-171.95
5.95,-5.58,1.48,19.75,-19.84,-155.31
6.96,-6.53,1.8,19.93,-23.26,-131.28
6.98,-7.34,1.62,26.46,-10.39,-119.09
6.8,-7.91,1.73,29.51,-9.17,-120
7.51,-8.3,2.5,19.26,-7.53,-124.21
9.61,-8.8,2.64,25.54,11.8,-109.51
10.41,-9,4.09,25.97,19.48,-82.5
9.63,-9.48,4.17,23.04,4.06,-61.89
9.32,-10.26,3.74,15.3,-10.82,-53.97
9.76,-10.75,3.29,12.37,-12.28,-45.31
10.71,-10.51,2.81,15.66,9.24,-31.47
10.59,-10.36,3.63,10.85,30.89,-11.83
9.65,-10.69,4.05,5.05,17.84,11.28
8.83,-10.66,3.85,-4.64,-0.21,18.72
8.92,-10.47,3.28,-8.18,-7.16,27.13
9.33,-10.15,3.19,-11.84,14.42,38.47
9.32,-9.96,3.01,-9.95,35.15,60.61
8.87,-10.04,2.62,-6.1,46.5,72.13
8.33,-9.21,2.97,-6.84,41.56,86.09
8.68,-8.66,3.11,-12.44,40.95,105.55
8.84,-8.81,2.56,-12.93,47.41,123.78
8.36,-8.54,2.3,-7.2,48.14,141.52
7.77,-8.15,2.24,-2.81,46.56,149.2
7.23,-7.43,2.41,-0.31,43.51,160.06
6.83,-6.85,2.49,-3.48,49.42,175.48
6.13,-6.44,2.53,-2.57,57.65,199.57
5.1,-6.45,2.73,-1.96,64.91,213.35
4.34,-5.61,3.01,-3.05,56.68,221.89
3.22,-5.32,2.9,-9.03,51.62,233.84
1.79,-4.81,3.07,-14.7,60.34,241.52
0.17,-3.89,3.34,-27.57,76.56,244.45
-1.35,-3.39,3.23,-38.6,76.92,245
-2.24,-3.19,2.31,-49.94,51.13,239.75
-2.62,-3.48,1.29,-51.1,26.01,240.79
-2.97,-3.27,0.18,-38.66,16.19,238.84
-3.91,-2.65,0.75,-27.32,12.41,220.73
-4.37,-1.96,1.19,-30.13,2.84,205.91
-4.83,-1.84,0.93,-36.29,-4.6,197.74
-5.61,-1.67,0.95,-35.92,2.05,195.06
-5.93,-1.93,1.01,-26.23,4.61,204.2
-7.58,-2.11,0.5,-18.3,6.8,193.53
-9.34,-1.74,0.9,-13.54,1.68,178.9
-10.61,-1.63,0.95,-15.8,-3.32,157.01
-10.6,-2.04,1.22,-20.37,-22.59,136.76
-10.09,-1.76,0.47,-29.82,-37.95,127.37
-10.06,-1.95,0.52,-19.76,-34.84,125.91
-11.15,-2.34,1.81,-12.08,-26.37,118.78
-11.69,-2.21,1.8,-9.82,-16.25,104.39
-11.52,-2.27,2.01,-11.59,-18.69,86.16
-11.32,-2.5,1.52,-8.6,-30.94,77.25
-11.65,-1.99,1.04,-14.82,-39.36,76.95
-11.67,-2.12,1.13,-8.24,-36.43,66.58
-11.15,-2.12,1.84,-0.92,-23.32,58.72
-11.65,-1.54,2,-7.45,-16.43,52.62
-11.89,-2.12,2,-6.53,-16.13,45.61
-12.06,-2.09,1.88,-2.81,-20.58,37.62
-11.82,-1.96,1.44,-2.99,-20.58,30.67
-11.88,-2.03,1.66,-0.07,-17.47,22.68
-11.44,-1.67,1.7,1.03,-13.2,16.22
-11.36,-1.88,2.09,-1.96,-5.39,9.88
-10.97,-1.97,1.75,-0.31,1.37,7.86
-10.81,-2.1,1.62,2.43,2.78,7.31
-10.93,-2.12,1.78,1.88,-6.8,1.7
-10.61,-2.19,1.85,2.13,-16.37,-5.8
-9.61,-2.09,2.09,0.97,-13.38,-7.56
-9.25,-2.17,1.99,2.07,-1.37,-5.06
-9.3,-2.23,2.12,2.25,2.11,-3.78
-9.45,-2.23,2.06,1.4,1.07,-6.22
-9.31,-2.31,1.99,2.8,-3.08,-10.43
-8.85,-2.46,2.13,2.62,-4.3,-12.01
-8.45,-2.39,1.96,4.32,-1,-9.82
-8.49,-2.56,2.23,3.41,-3.32,-7.44
-8.64,-2.43,2.29,2.07,3.63,-8.05
-8.54,-2.59,2.18,3.53,4.97,-7.26
-8.61,-2.6,2.23,2.86,0.46,-6.71
-8.73,-2.76,2.15,4.02,-3.2,-12.2
-8.47,-2.74,2.4,4.2,-8.69,-12.2
-8.47,-2.59,2.59,1.95,-6.67,-11.4
-8.25,-2.65,2.51,2.68,2.23,-9.15
-8.5,-2.7,2.59,0.91,5.89,-5.55
-8.73,-2.8,2.64,0.48,0.95,-6.04
-8.63,-2.77,2.62,-1.1,-6,-6.83
-8.49,-2.72,2.45,0.3,-3.87,-10.37
-8.29,-2.68,2.68,0.18,-1.37,-9.09
-8.2,-2.78,2.65,-1.29,0.22,-6.71
-8.28,-2.75,2.54,-1.1,-0.58,-5.49
-8.19,-2.84,2.4,-2.63,-5.03,-3.6
-8.18,-2.77,2.34,-2.81,-2.71,-3.9
-9.49,-2.65,0.1,0.05,-0.88,0.91
-8.48,-3.55,1.85,7.01,8.75,2.68
-8.66,-3.41,1.89,4.75,6.13,-0.98
-8.74,-3.36,2.01,0.91,3.51,-5.61
-8.64,-3.36,2.12,-6.35,-4.11,-6.28
-8.37,-3.6,1.59,-7.26,-6.67,-3.9
-8.45,-3.66,1.62,-4.7,-2.89,-4.39
-8.6,-3.58,1.68,-6.59,-2.95,-7.87
-8.66,-3.09,1.72,-8.05,-4.42,-11.4
-8.45,-2.93,1.88,-13.05,-7.83,-1.53
-8.37,-3.5,1.71,-13.3,-5.64,2.19
-5.29,-18.81,-2.07,-75.13,-25.33,-5.25
-8.81,-4.07,1.56,-11.47,4.73,4.08
-8.82,-3.51,1.52,-4.95,6.07,2.25
-8.7,-3.53,1.4,-0.43,3.63,-0.49
-8.5,-3.41,1.62,1.76,2.17,2.5
-8.57,-3.64,1.67,0.48,2.11,3.35
-8.7,-3.52,1.84,-1.16,3.45,1.4
-8.73,-3.42,1.71,-2.81,4.73,0.36
-8.73,-3.58,1.56,-3.24,5.83,0.3
-8.9,-3.57,1.56,-2.08,6.74,-0.98
-8.99,-3.51,1.61,-2.14,6.01,-0.8
-9.25,-3.43,1.65,-2.14,7.17,-2.44
-9.6,-3.52,1.56,-2.26,12.17,-3.84
-10.11,-3.65,1.69,-2.26,14.48,-6.71
-10.58,-3.56,1.78,-2.45,12.05,-10.8
-10.8,-3.52,1.83,-3.91,7.05,-16.16
-11.21,-3.4,1.55,-5.13,5.76,-23.66
-11.47,-3.31,1.29,-5.98,7.47,-32.44
-11.72,-3.32,1.01,-4.4,7.17,-41.71
-11.86,-3.22,0.73,-4.7,4.36,-52.68
-11.86,-3.32,0.56,-3.54,-2.59,-64.51
-11.6,-3.38,0.22,-1.71,-7.95,-78.6
-11.11,-3.36,0.21,3.96,-8.32,-88.72
-10.75,-3.38,0.32,8.1,-3.38,-96.59
-10.86,-3.29,0.56,10.85,-1.55,-106.77
-10.66,-3.43,0.51,12.13,-6.13,-118.29
-10.29,-3.47,0.46,14.81,-15.58,-128.84
-9.77,-3.41,0.65,15.66,-25.7,-137.62
-9.19,-3.36,0.8,17.68,-27.28,-143.23
-8.62,-3.3,0.8,20.36,-16.43,-147.87
-8.15,-3.48,0.75,23.04,-4.78,-152.81
-8,-3.64,1,26.7,-6.49,-159.03
-7.49,-3.61,1.14,28.35,-20.52,-164.57
-6.67,-3.64,1.53,31.7,-24.54,-168.72
-5.75,-3.69,1.96,34.69,-21.55,-168.9
-5.06,-3.92,2.08,35.18,-20.45,-167.56
-4.09,-4.29,2.15,29.08,-23.81,-166.1
-3.22,-4.55,2.36,31.09,-22.34,-164.21
-2.49,-4.75,2.27,31.88,-19.11,-163.84
-1.7,-4.87,2.35,34.69,-15.58,-159.39
-0.67,-5.44,2.57,30.42,-10.39,-151.16
-0.14,-5.75,2.45,33.35,-0.52,-147.62
0.01,-5.87,2.82,34.02,-1.98,-141.16
0.07,-5.9,3.48,27.49,-23.2,-138.6
1.35,-6.66,2.96,24.93,-32.04,-138.66
2.35,-7.19,3.12,29.14,-24.36,-129.7
2.31,-7.44,3.49,31.34,-21.67,-120.61
1.84,-7.5,3.64,27.31,-39.84,-122.32
2.68,-7.58,3.83,14.75,-55.09,-127.44
4.25,-8.03,3.37,17.01,-44.97,-123.66
4.68,-8.73,3.04,22.92,-33.44,-108.72
4.02,-9.19,3,25.54,-61.49,-104.94
4.04,-8.72,3.43,22.19,-92.04,-105.37
5.32,-8.78,3.7,14.69,-89.54,-108.36
7.35,-9.2,3.78,13.71,-43.38,-95.12
7.58,-10.21,4.64,15.66,-3.32,-70.43
5.93,-10.36,4.73,20.66,-9.91,-55.79
5.42,-10.38,5.02,17.98,-35.03,-50.79
6.46,-10.83,4.58,12.92,-30.94,-44.58
7.15,-10.64,4.73,10.97,-5.88,-30.25
7.18,-10.78,5.04,7.49,9,-11.34
6.48,-10.5,5.34,-0.43,14.54,4.45
5.95,-10.52,4.88,-4.88,9.24,14.69
6.25,-10.34,4.64,-7.02,10.64,26.64
5.54,-10.16,4.43,-8.42,7.84,36.28
5.07,-9.86,4.14,-11.47,-0.7,40.48
4.98,-9.75,3.7,-9.76,-5.09,43.29
5.4,-9.5,3.53,-8.3,4.42,50
5.63,-9.45,3.44,-4.4,14.18,59.88
5.17,-9.25,3.55,-3.42,13.75,66.28
4.61,-8.86,3.86,-9.95,-0.03,74.94
4.58,-8.9,3.78,-11.29,-6.55,80.67
4.7,-8.81,3.71,-9.15,2.78,88.84
4.57,-8.78,3.74,-5.25,21.62,98.17
3.95,-8.65,3.61,-0.68,36.98,107.13
2.8,-8.29,4.08,-2.51,32.84,106.83
2.47,-8.12,4.25,-5.55,15.7,107.31
2.09,-7.89,4.31,-11.96,13.69,115.24
1.68,-7.87,4.03,-13.3,27.04,121.95
1.23,-7.79,3.76,-13.18,40.7,125
1.07,-7.4,3.96,-17.81,46.74,131.95
-0.5,-7.16,3.81,-26.35,20.46,137.25
-1.11,-7.3,3.17,-28.73,-14.6,128.96
0,-7.09,2.63,-24.58,-15.94,124.94
1,-6.95,2.55,-17.69,20.7,134.33
0.21,-6.28,2.43,-8.91,63.02,151.95
-2.55,-5.98,2.86,-9.64,50.15,156.4
-3.69,-5.45,2.72,-19.52,-14.24,143.35
-2.27,-5.49,1.98,-23.85,-45.15,134.57
-0.71,-5.31,1.52,-18.12,-12.95,143.9
-1.09,-4.94,1.71,-6.84,46.62,164.14
-3.74,-4.82,2.57,-2.75,50.15,172.25
-5.7,-4.76,3.22,-6.41,-31.67,151.09
-4.12,-4.67,2.07,-7.45,-81.92,138.17
-2.47,-4.47,1.85,-1.65,-46.61,140.97
-2.49,-3.61,2.22,2.55,12.96,153.23
-3.92,-3.15,2.48,0.73,36.13,167.5
-5.8,-3.34,2.3,0.85,-0.58,165.36
-5.69,-3.19,2.06,6.7,-28.75,158.96
-4.57,-2.69,2.12,10.97,-13.38,161.4
-4.84,-2.24,2.67,16.15,11.68,166.34
-6.25,-1.92,3.53,13.59,25.15,169.93
-7.87,-1.54,3.73,8.71,8.2,168.29
-9.03,-1.13,3.44,7.13,-5.76,165.48
-9.59,-1.04,2.91,9.63,2.47,159.14
-9.92,-1.12,2.69,18.9,14.18,150.3
-10.59,-0.26,3.14,15.48,28.26,147.37
-12.85,0.01,3.63,6.34,30.09,131.28
-14.63,-0.04,3.33,5.36,17.23,104.87
-14.58,-0.22,3.33,2.31,-0.7,81.77
-14.48,-0.3,3,1.82,-4.78,62.31
-13.98,-0.11,2.86,5.48,14.24,49.27
-14.21,-0.22,3.03,7.55,35.4,41.34
-14.91,-0.18,3.21,6.82,27.9,28.05
-14.78,-0.42,2.85,3.04,-4.6,8.66
-13.57,-0.54,2.59,-0.92,-32.53,-8.84
-11.55,-0.73,2.32,-0.31,-21.98,-17.62
-10.33,-0.97,2.44,4.63,9.42,-17.08
-10.54,-1.01,2.7,6.58,18.69,-15.31
-10.79,-1.14,2.87,4.38,-1.25,-20.79
-9.88,-1.33,2.5,1.76,-22.95,-28.84
-8.11,-1.37,2.39,3.47,-7.65,-27.44
-7.67,-1.66,2.62,5.85,20.89,-18.29
-8.56,-1.58,3.07,4.14,25.4,-13.48
-8.93,-1.67,2.94,2.01,7.23,-13.84
-8.45,-1.8,2.71,-0.43,-5.03,-17.62
-7.56,-1.85,2.5,-0.31,6.25,-16.59
-7.77,-1.9,2.76,2.98,19.42,-11.16
-8.42,-2.07,2.82,3.84,15.34,-8.72
-8.02,-2.45,1.62,12.43,12.17,3.96
-8.72,-3.15,2.35,10.73,14.97,-1.04
-8.93,-3.18,2.14,4.87,13.45,-2.62
-8.5,-3.35,2.29,-1.9,4.36,-3.11
-8.3,-3.29,2.31,-11.59,-5.82,5.06
-8.15,-3.64,1.49,-10.98,-5.82,8.84
-8.42,-3.43,1.61,-9.7,-0.15,4.08
-8.64,-3.23,1.94,-14.09,-1.31,-2.26
-8.74,-3.02,2.06,-19.7,-4.36,-7.69
-8.67,-3.15,2.18,-20.31,-7.77,-8.23
-8.35,-2.97,1.62,127.19,27.59,-6.65
-8.41,-3.89,2.41,-12.44,-6.06,5.73
-8.55,-3.32,2.08,-10.74,5.03,4.94
-8.7,-3.37,1.94,-6.53,4,0.12
-8.59,-3.37,1.79,-3.3,1.07,-1.89
-8.43,-3.39,1.72,0.66,-0.58,-1.89
-8.28,-3.33,1.5,2.74,-0.52,1.03
-8.48,-3.31,1.65,3.16,4.06,0.06
-8.57,-3.32,1.76,3.59,4.91,-0.67
-8.52,-3.35,1.89,2.25,0.58,0.79
-8.69,-3.28,1.96,0.24,-2.22,0.3
-8.6,-3.38,1.89,-0.37,-2.41,1.1
-8.6,-3.32,2.15,-0.49,2.59,0.79
-8.68,-3.36,2.18,-0.74,3.39,0.91
-8.65,-3.34,1.97,-0.92,1.44,0.91
-8.64,-3.34,1.78,-0.55,0.15,0.06
-8.53,-3.23,1.77,-0.25,0.95,0.49
-8.53,-3.27,1.79,-0.31,1.62,0.55
-8.48,-3.32,1.66,0.73,0.83,0.06
-8.44,-3.26,1.84,0.97,-0.39,1.1
-8.54,-3.31,1.83,1.15,0.52,-0.25
-8.54,-3.23,1.91,0.91,1.13,-0.25
-8.55,-3.25,1.96,0.24,1.5,0.12
-8.65,-3.39,1.93,-0.55,2.59,1.16
-8.71,-3.32,1.98,-0.43,3.08,1.7
-8.87,-3.3,1.97,-1.16,2.59,1.28
-9,-3.36,1.96,-2.32,3.69,-0.55
-9.08,-3.29,1.94,-2.2,3.26,-0.61
-9.27,-3.29,1.9,-2.57,5.34,-1.89
-9.63,-3.22,1.95,-2.38,6.92,-2.99
-9.94,-3.33,2.02,-3.12,6.62,-5.86
-10.24,-3.41,2.12,-4.58,8.02,-8.9
-10.51,-3.52,2.25,-5.31,14,-11.77
-11.04,-3.48,2.58,-6.71,20.76,-15.37
-11.83,-3.09,2.67,-9.7,29.06,-22.2
-12.87,-2.74,2.3,-13.05,39.18,-32.81
-13.95,-2.59,1.51,-12.51,40.52,-47.75
-14.63,-2.46,0.65,-11.71,26.98,-68.05
-14.52,-2.28,-0.21,-9.34,9.67,-89.33
-14.17,-1.89,-0.48,-5.8,-3.5,-110.73
-13.75,-1.62,-0.5,-0.74,-10.27,-132.99
-12.87,-1.62,-0.29,3.9,-6.86,-153.78
-12.06,-1.68,0,6.82,-3.14,-170.55
-11.66,-1.76,0.19,9.87,-9.78,-189.82
-10.72,-1.79,0.45,10.18,-20.58,-210.73
-9.13,-1.56,0.65,12.55,-26.98,-218.48
-7.87,-1.79,0.42,7.37,-30.64,-224.7
-6.82,-2.25,0.97,13.23,-27.83,-229.57
-5.94,-2.08,1.54,15.48,-30.39,-234.27
-4.85,-2.15,1.95,13.29,-36.49,-239.94
-3.35,-2.52,1.8,11.27,-36,-241.4
-1.52,-3.3,1.49,11.95,-30.88,-234.33
-0.17,-3.86,1.34,12.92,-14.17,-225.73
0.89,-3.92,1,20.66,7.78,-214.82
1.68,-4.26,1.12,26.34,32.23,-204.82
2.23,-4.52,1.26,29.51,55.28,-191.34
2.38,-5.31,1.19,29.69,54.79,-171.4
2.25,-6.07,1.25,34.44,33.02,-161.95
2.23,-5.96,1.99,34.32,6.86,-158.6
2.7,-6.06,2.54,34.51,-8.32,-161.46
3.89,-6.07,3.01,28.59,-2.53,-155.49
4.62,-7.03,3.06,26.7,17.23,-146.46
4.85,-7.55,3.09,26.34,18.94,-139.45
4.55,-7.57,3.51,27.55,-9.91,-131.95
4.89,-8.08,3.44,27.01,-38.26,-135.55
6.66,-8.38,3.07,32.25,-37.77,-138.29
9.13,-8.92,3.8,27.25,1.68,-118.17
9.07,-9.47,4.41,18.29,19.06,-89.45
8.07,-10.24,4.61,17.68,0.46,-72.26
8.36,-10.89,3.77,16.52,-24.24,-63.11
9.58,-11.07,3.9,14.99,-17.65,-51.59
10.44,-11.19,3.94,15.24,8.94,-28.17
9.65,-11.34,4.71,9.38,21.31,-8.36
9.13,-11.18,4.55,4.51,9.97,9.08
9,-10.79,4.38,-0.92,3.02,23.05
9.2,-10.39,4.37,-5.62,11.68,41.95
9.13,-10.08,4.04,-9.09,31.13,58.59
8.7,-9.82,3.77,-9.82,45.34,77.31
7.82,-9.32,3.57,-11.77,42.11,94.2
7.44,-8.96,3.18,-13.79,36.07,109.2
7.07,-8.6,3.12,-13.97,39.3,125.18
6.32,-8.25,3.34,-14.52,50.58,141.22
5.15,-7.75,3.51,-15.49,59.97,156.7
4.1,-7.58,3.6,-17.44,62.04,169.14
3.16,-7.19,3.57,-21.59,52.23,176.89
2.48,-7.28,3.37,-25.25,40.7,177.37
1.68,-7.02,3.37,-28.54,41.74,177.56
1.08,-6.87,3.22,-28.6,57.29,178.47
0.26,-6.67,2.93,-32.08,59.48,182.01
-0.31,-6.16,2.91,-32.38,44.97,182.37
-1.25,-5.85,3.02,-37.32,18.75,180.06
-1.4,-5.78,2.68,-38.42,2.53,174.81
-1.54,-5.79,2.46,-37.08,4.73,169.57
-1.75,-5.01,2.42,-36.16,18.39,169.87
-1.98,-4.52,1.98,-32.69,32.65,178.96
-3.02,-4.48,1.75,-31.59,33.02,192.92
-4.56,-3.99,1.5,-30.01,21.8,193.23
-5.53,-3.51,1.56,-30.25,-2.65,182.19
-5.06,-3.33,0.81,-38.42,-27.89,160.73
-4.27,-3.36,1.03,-30.25,-34.24,162.56
-3.95,-2.98,0.32,-23.66,-5.03,177.5
-4.94,-2.52,0.34,-17.26,14.12,185.24
-6.18,-1.53,0.96,-19.82,0.52,184.87
-7.41,-2.05,1.34,-24.64,-32.28,176.89
-7.34,-1.96,0.61,-25.49,-40.33,169.69
-7.44,-2.06,0.43,-10.98,-31.67,166.89
-7.55,-1.74,0.8,4.38,-8.87,168.59
-8.76,-0.97,1.57,6.15,7.9,167.86
-10.37,-0.1,2.74,-1.84,12.53,164.57
-12.31,-0.38,2.03,-13.54,5.4,147.01
-12.85,-0.75,0.94,-10.68,-9.85,124.81
-12.64,-0.64,0.42,-3.36,-14.48,105.36
-12.46,-0.65,1.09,-0.07,-3.14,96.22
-13.29,-0.32,1.83,4.14,10.7,89.51
-14.07,-0.28,1.91,-1.59,14.61,73.78
-14.73,-0.25,1.52,-3.6,-4.6,56.77
-14.16,-0.5,1.36,0.54,-22.47,42.25
-13.17,-0.88,1.52,2.62,-19.72,29.81
-12.48,-0.83,1.89,7.19,-8.81,24.51
-12.61,-0.7,2.46,5.97,4.36,16.77
-12.45,-0.74,2.47,0.97,3.26,9.94
-12.08,-1,1.98,-0.62,-6.86,2.74
-11.25,-1.09,1.95,-1.9,-11.25,-1.22
-10.42,-1.19,1.63,-1.23,-3.87,-3.72
-10.02,-1.1,1.84,-1.9,4.12,-2.75
-10.02,-1.08,1.86,-5.74,5.22,-4.39
-9.8,-1.21,1.79,-5.31,-0.64,-7.87
-9.27,-1.23,1.56,-6.59,-6.06,-10.43
-8.69,-1.36,1.49,-3.18,-5.45,-12.56
-8.32,-1.34,1.72,-2.75,-2.1,-9.33
-7.94,-2.66,0.46,6.7,11.92,-2.62
-8.64,-3.44,0.81,10.12,5.28,-1.16
-8.69,-3.14,0.85,8.53,3.51,-0.43
-8.56,-3.25,0.78,7.19,1.98,1.03
-8.7,-3.28,0.56,9.93,3.39,0.67
-8.93,-3.04,1.19,4.02,-2.65,-1.4
-8.86,-3.15,1.06,-5.19,-7.53,-4.39
-8.86,-3.21,1.16,-8.36,-6.92,-9.09
-8.85,-3.27,1.14,-10.25,-7.28,-10.61
-8.93,-2.9,1.13,-5.43,-5.82,-8.9
-8.9,-3.1,1.06,-1.84,-4.3,-4.7
-8.53,-1.21,1.74,-2.93,8.63,1.34
-8.84,-2.87,0.85,-5.25,3.51,-0.73
-8.98,-3.51,1.27,-3.3,-1.13,-0.43
-9.15,-3.37,1.25,-3.36,0.7,-0.25
-9.36,-3.25,1.26,-4.03,3.14,-1.95
-9.56,-3.16,1.02,-3.6,4.67,-3.48
-9.88,-3.23,1.01,-3.73,7.59,-5.55
-10.04,-3.23,1.02,-4.09,9.36,-7.5
-10.55,-3.18,0.97,-4.95,13.08,-11.4
-11.23,-3.11,0.88,-5.8,13.51,-17.62
-11.98,-3.48,0.81,-7.51,5.03,-27.75
-12.37,-3.59,0.53,-8.91,-1.37,-38.29
-12.47,-3.63,0.43,-8.18,0.15,-49.15
-12.81,-3.24,0.46,-7.2,5.89,-61.4
-13.03,-3.05,0.46,-6.16,3.63,-77.44
-12.79,-2.82,0.28,-5.01,-3.75,-92.99
-12.21,-2.83,0.06,-3.73,-6.74,-107.62
-11.68,-2.47,-0.04,-1.1,-6.19,-119.45
-11.09,-2.74,-0.16,1.64,-6.43,-129.33
-10.68,-2.89,-0.23,5.24,-17.47,-136.89
-9.93,-2.83,-0.25,7.74,-25.64,-147.44
-8.95,-2.77,-0.16,11.4,-22.71,-152.01
-8.33,-2.95,-0.39,16.52,-17.83,-157.26
-7.8,-3.15,-0.36,19.26,-21.13,-160.18
-7.13,-3.64,-0.42,22.55,-27.59,-164.57
-6.32,-3.4,0.09,23.84,-31.43,-164.09
-5.43,-4.06,0.83,20.97,-23.08,-164.33
-5.01,-3.85,1.11,23.9,-18.87,-159.39
-4.9,-4.53,0.89,18.16,-22.04,-160.73
-4.57,-4.94,0.54,20.24,-21.13,-170.24
-3.4,-5,0.63,24.93,-29.6,-176.89
-2.39,-5.02,1.13,25.36,-28.87,-171.83
-2.04,-5.46,1.24,23.96,-33.44,-166.46
-1.4,-6.01,1.35,22.49,-49.17,-167.62
-0.47,-6.02,1.2,24.08,-53.08,-166.89
0.82,-6.24,1.57,30.79,-24.36,-162.62
0.99,-6.62,2.4,35.54,-1.25,-157.07
0.44,-6.98,2.71,33.96,-23.26,-153.35
0.19,-6.93,2.49,24.38,-75.21,-157.5
1.74,-6.95,1.54,19.93,-89.3,-165.06
4.19,-7.35,1.28,27.68,-43.08,-159.63
4.57,-7.74,1.93,30.85,1.74,-136.59
3.12,-7.58,2.59,29.87,-11.98,-118.11
2.28,-8.5,2.12,25.79,-73.99,-126.95
3.68,-8.56,1.41,31.58,-100.94,-142.74
6.03,-8.04,2.19,34.69,-62.1,-142.93
7.52,-8.51,3.46,36.64,0.03,-127.68
6.91,-9.16,4.22,34.51,8.26,-104.03
5.75,-9.12,4.38,31.82,-30.7,-87.5
6.12,-9.28,3.65,29.51,-55.76,-84.7
6.7,-9.27,3.79,25.73,-46.43,-84.64
7.95,-9.2,4.78,21.94,-18.81,-74.21
7.99,-9.61,5.04,13.96,-6.31,-58.66
7.5,-9.85,4.59,12.31,-12.04,-43.42
7.32,-9.77,4.24,11.21,-20.76,-32.5
7.99,-9.34,4.6,6.46,-11.55,-23.97
8.73,-9.48,4.37,4.08,9.06,-6.59
8.08,-9.65,4.43,2.13,18.08,6.52
7.48,-9.32,4.53,-5.01,8.81,15.79
7.46,-9.28,4.06,-9.7,-2.71,23.17
7.97,-9.15,3.69,-11.16,-0.88,33.29
8.22,-9.02,3.52,-11.23,13.75,49.81
8.07,-8.94,3.4,-9.15,29.24,67.19
7.45,-8.85,3.34,-6.04,39.73,78.35
7.11,-8.62,3.41,-6.96,46.86,91.76
6.83,-8.33,3.55,-8.73,55.09,105.3
6.53,-8.13,3.54,-9.34,61.74,118.29
6.29,-7.85,3.34,-7.38,64.85,130.3
6.07,-7.86,3.03,-3.6,69,141.15
5.46,-7.73,3.26,4.26,77.41,156.34
4.54,-7.44,3.11,9.63,79.48,170.12
3.52,-6.8,3.54,5.97,76.13,181.46
2.69,-6.45,3.86,-3.24,67.47,184.63
2.18,-6.58,3.76,-13.42,59.3,184.08
1.56,-6.46,3.37,-15.62,61.92,189.63
0.41,-6.36,3.08,-13.73,75.95,193.53
-0.78,-5.99,3.04,-11.9,89.85,197.37
-1.99,-5.69,2.91,-12.14,86.31,195.06
-2.86,-5.35,2.83,-17.81,64,189.69
-2.96,-5.25,2.48,-23.05,48.39,187.37
-3.57,-5.09,2.41,-26.35,48.63,184.63
-4.32,-4.68,2.11,-28.91,48.33,176.89
-4.63,-4.46,1.93,-28.97,36.56,168.96
-4.67,-4.52,1.52,-38.3,2.11,160.97
-4.65,-4.34,1.61,-34.4,-13.5,169.75
-4.58,-4.04,1.34,-26.77,28.63,176.09
-5.6,-3.67,1.86,-18.3,72.17,172.43
-7.24,-3.59,2.29,-18.24,53.39,161.03
-7.55,-3.33,2.51,-25.19,7.96,150.06
-7.06,-3.36,1.81,-30.31,-6.98,149.33
-6.82,-3.58,1.33,-22.38,15.64,148.53
-7.02,-2.9,1.39,-11.59,38.63,151.34
-8.09,-2.63,1.63,-13.24,37.9,147.25
-8.46,-1.85,1.95,-21.71,25.52,148.47
-9.27,-1.85,1.46,-30.43,22.35,140
-9.84,-1.74,1.02,-29.15,16.19,125.85
-9.74,-1.52,0.72,-29.09,7.59,116.64
-10.1,-1.27,0.41,-26.04,16.13,115.55
-11.44,-0.59,0.43,-22.69,28.57,109.33
-13.19,-0.5,1.01,-23.73,18.63,91.76
-13.42,-0.56,0.45,-27.93,-5.03,70.42
-13.06,-0.72,0.4,-25.98,-15.7,56.83
-12.58,-0.78,-0.13,-19.03,-2.53,47.38
-12.75,-0.87,0.12,-9.27,10.15,38.96
-13.19,-0.78,0.49,-6.59,-0.94,28.53
-13.19,-0.93,0.44,-9.46,-19.91,13.53
-12.1,-1.04,0.39,-7.87,-29.24,2.86
-11.06,-1.22,0.16,-4.21,-15.33,0.97
-10.88,-1.5,0.51,1.76,-1.31,1.28
-10.97,-1.38,0.96,2.62,-3.81,-1.59
-10.67,-1.4,1.01,0.79,-15.15,-7.93
-9.93,-1.47,1.03,-0.8,-19.66,-12.26
-9.16,-1.71,0.91,1.4,-9.66,-11.59
-8.86,-1.73,1.18,3.04,1.86,-6.22
-9.14,-1.75,1.42,2.07,1.86,-4.03
-9.14,-1.76,1.52,0.97,-4.48,-5.37
-8.82,-1.77,1.49,0.05,-6.67,-6.4
-8.49,-1.97,1.25,0.24,-2.28,-5.37
-8.39,-2,1.35,1.58,4,-2.14
-8.78,-2,1.59,2.19,4.79,-0.92
-8.8,-1.96,1.56,0.18,1.74,-1.16
-8.91,-1.98,1.51,0.91,2.23,-2.99
-8.83,-2.03,1.48,0.48,0.03,-2.26
-8.89,-2.06,1.4,1.21,-1.43,-2.75
-8.76,-2.12,1.59,0.05,0.09,-2.44
-8.87,-2.11,1.72,0.12,3.45,-0.73
-8.97,-1.93,1.79,-0.25,3.08,-0.73
-9.13,-1.91,1.63,-0.92,0.89,-2.56
-9.06,-2.16,1.51,-1.65,-4.36,-3.36
-7.43,-6.12,2.07,28.62,-31.73,-12.96
-6.53,-6.43,1.73,21.42,-36.92,-1.68
-6.75,-6.19,1.52,16.61,-33.75,0.4
-6.82,-6.3,1.56,14.84,-31.55,0.4
-6.76,-6.25,1.49,11.3,-32.95,-0.28
-6.8,-6.13,2.01,1.73,-38.5,-0.4
-6.85,-6.01,1.85,-0.22,-38.56,1.55
-7.14,-6.05,1.98,4.17,-38.75,3.44
-7.63,-6.08,1.93,1.12,-32.71,-8.14
-7.34,-5.56,1.86,0.88,-32.83,-11.31
-8.62,4.93,2.91,-44.12,-33.32,-6.56
-7.73,-5.87,1.64,4.17,-30.39,-12.65
-7.72,-5.6,1.69,10.39,-33.01,-11.13
-7.76,-5.8,1.73,12.77,-35.82,-8.57
-7.46,-5.88,1.59,11.55,-35.7,-10.34
-7.43,-5.93,1.69,12.95,-32.16,-10.34
-7.65,-5.86,1.62,13.44,-29.9,-12.53
-7.93,-5.87,1.62,17.58,-27.65,-15.7
-8,-5.9,1.9,19.78,-30.33,-21.31
-7.88,-5.95,2.02,18.86,-29.72,-22.1
-7.98,-5.81,1.95,16.79,-23.14,-19.3
-8.48,-5.95,2.03,15.75,-14.36,-16.92
-9.33,-5.74,1.91,13.01,-6.92,-16.74
-10.04,-5.75,1.75,10.57,-2.34,-22.84
-10.29,-6.06,1.46,10.02,-6.8,-36.56
-10.43,-5.87,1.4,7.1,-12.16,-48.45
-10.92,-5.9,1.44,5.2,-17.16,-64.12
-11.22,-5.73,1.36,0.2,-25.64,-83.63
-11.1,-5.56,0.95,-4.19,-26.86,-100.88
-10.56,-5.43,0.68,-4.43,-12.83,-114.3
-10.17,-5.21,0.51,0.69,5.22,-118.93
-10.72,-5.32,0.46,12.1,-5.94,-123.51
-10.67,-5.61,0.96,10.94,-25.7,-146.07
-10.17,-5.25,0.5,17.52,-40.09,-168.75
-9.21,-5.45,0.47,18.99,-39.23,-191.19
-8.01,-5.28,0.03,25.08,-29.78,-203.32
-6.99,-5.53,0.01,33.19,-24.84,-211.37
-6.01,-5.71,-0.02,36.55,-15.88,-217.29
-5.86,-5.84,0.56,39.11,-24.72,-224.66
-4.86,-6.17,0.75,39.66,-43.44,-232.1
-2.95,-5.91,1.02,36.85,-61.79,-230.09
-2.06,-6.24,1.31,32.52,-53.44,-221.74
-1.88,-5.89,1.41,30.75,-47.89,-219.3
-1.99,-6.05,1.52,30.81,-49.72,-221.61
-1.63,-6.1,1,38.74,-54.42,-227.77
-0.09,-6.53,0.72,43.74,-67.47,-241.55
2.32,-6.45,0.56,29.66,-71,-235.15
3.09,-6.37,1.06,27.7,-55.39,-213.26
2.88,-6.14,1.28,30.94,-49.05,-193.44
2.34,-6.13,1.13,33.01,-61.37,-186.43
2.12,-6.34,0.7,35.81,-76.37,-196.37
3.7,-6.69,-0.04,39.96,-84.9,-206.01
5.55,-6.56,0.87,34.66,-72.16,-181.07
5.95,-6.33,1.82,38.98,-67.34,-167.71
5.76,-6.06,1.87,29.9,-65.09,-154.36
5.75,-6.15,1.42,31.24,-64.23,-153.38
6.16,-6.53,0.83,31.24,-56.18,-154.6
6.31,-6.72,0.97,34.23,-57.77,-157.71
6.59,-6.15,1.36,37.28,-54.29,-164.12
7.67,-5.7,1.91,36.85,-43.14,-160.03
8.78,-5.82,1.65,37.09,-35.27,-143.99
9.21,-6.22,1.52,39.9,-28.01,-125.88
8.87,-6.06,1.52,47.28,-28.38,-113.38
8.72,-6.56,1.71,60.69,-42.89,-115.7
8.98,-6.5,1.85,67.22,-59.78,-120.88
10.12,-6.31,2.55,60.14,-51.25,-119.48
10.99,-6.45,3.02,55.51,-35.82,-99.66
11.13,-6.57,2.96,48.68,-14.05,-78.08
10.66,-6.83,3.56,46.67,-9.3,-59.42
10.25,-7.18,3.83,41.24,-22.34,-50.95
10.47,-7.41,3.68,32.46,-33.44,-50.7
10.73,-7.26,3.71,27.95,-38.44,-42.29
10.89,-7.21,3.67,21.79,-34.78,-29.73
10.68,-7.14,3.44,15.39,-21.49,-18.57
10.54,-7.19,3.47,13.56,-24.36,-10.03
10.37,-7.25,3.52,8.92,-24.29,-1.5
10.12,-7.1,3.75,1.61,-23.14,6.61
10.27,-6.96,3.42,-3.88,-19.48,13.63
10.12,-6.76,3.52,-8.82,-17.4,22.47
10.31,-6.75,3.09,-13.15,-11.67,28.38
10.67,-6.71,3.23,-13.09,-12.65,39.36
10.73,-6.52,3.13,-15.71,-14.78,52.47
10.52,-6.19,2.94,-14.92,-12.95,66.55
10.6,-6.15,2.9,-14.73,-8.38,77.22
10.62,-6.06,2.74,-16.62,-4.42,91.86
10.7,-5.78,2.81,-18.88,4.97,110.03
10.47,-5.53,2.3,-21.26,15.7,131.49
9.49,-5.42,1.95,-18.39,18.39,150.15
8.38,-5.45,1.77,-14.79,7.66,161.8
7.74,-5.65,1.5,-10.28,-3.81,167.77
6.91,-5.56,1.26,-6.75,-8.5,175.88
5.93,-5.23,1.22,-1.44,-9.78,185.21
4.9,-5.22,1.16,8.07,-13.75,186
4.29,-5.31,1,16.79,-22.47,176.49
3.79,-5.51,1.12,26.3,-29.9,175.15
3.67,-5.56,1.21,32.34,-29.66,184.91
3.11,-5.22,1.39,35.88,-22.77,200.45
2.07,-4.65,1.74,39.05,-13.38,212.89
1.13,-4.33,2.15,38.01,-11.67,221.19
0.47,-4.37,1.91,34.72,-11.43,228.26
-0.37,-4.05,1.81,31.24,-2.65,241.06
-1.28,-3.78,1.59,32.16,15.7,251.49
-2.54,-3.16,2.14,28.5,24,249.78
-3.64,-2.72,1.87,21.24,8.94,239.97
-4.04,-2.94,1.3,13.62,-7.04,230.09
-4.96,-2.38,0.96,11.06,-7.28,225.27
-6.09,-2.18,0.32,9.96,-2.65,213.5
-6.86,-2.41,0.5,24.59,-14.78,195.82
-6.65,-1.9,0.14,23.01,-20.45,190.76
-8.15,-1.84,0.68,24.96,-30.09,191.73
-10.23,-2.16,0.56,36.73,-38.01,172.16
-11.53,-2.39,1.38,43.8,-48.87,131.74
-11.82,-2.17,1.75,36.61,-50.76,104.05
-12.31,-2.27,1.8,37.28,-38.62,99.36
-13.51,-2.78,1.74,41.12,-23.14,93.14
-14.6,-2.72,2.28,40.39,-18.81,76.31
-15.3,-2.99,2.86,35.57,-37.4,52.04
-14.98,-3.27,2.68,34.66,-58.26,27.04
-13.82,-3.55,2.47,34.66,-66.49,5.33
-12.75,-3.51,2.38,36.42,-65.7,-6.62
-11.72,-3.44,2.59,36.12,-51.43,-11.37
-11.49,-3.31,3.12,29.96,-34.54,-13.63
-11.4,-3.35,3.04,25.88,-32.34,-18.45
-11.09,-3.53,2.87,24.84,-38.87,-25.03
-10.38,-3.36,2.87,26.18,-46.49,-32.17
-9.63,-3.34,2.89,23.92,-43.62,-34.18
-9.09,-3.32,2.75,20.2,-31.61,-32.65
-8.91,-3.34,2.7,18.68,-21.86,-31.49
-8.73,-3.37,2.59,17.58,-23.62,-32.17
-8.44,-3.38,2.4,18.92,-28.62,-31.92
-8.15,-3.39,2.57,19.41,-25.27,-30.89
-8,-3.55,2.49,19.17,-19.9,-27.71
-8.19,-3.41,2.59,19.78,-22.22,-27.78
-8.12,-3.47,2.67,20.57,-30.39,-28.45
-7.97,-3.5,2.63,18.8,-35.76,-31.07
-7.61,-3.47,2.69,17.64,-32.77,-30.4
-7.85,-3.57,2.69,15.02,-25.39,-32.47
-7.85,-3.57,2.75,15.45,-25.21,-29.91
-8.05,-3.77,2.55,15.51,-26.73,-28.81
-8.23,-3.66,2.74,16.24,-31.86,-31.31
-8.37,-5.56,1.51,21.79,-15.7,-27.29
-7.84,-5.58,1.69,27.95,-19.36,-26.92
-7.47,-5.43,1.44,34.41,-22.28,-28.93
-7.61,-5.4,1.93,27.52,-22.1,-30.34
-7.67,-5.03,2.15,13.74,-25.88,-30.76
-8.1,-5.19,1.99,4.66,-29.6,-36.92
-8.29,-5.17,1.78,-1.99,-34.6,-45.82
-8.1,-4.85,1.57,-2.9,-40.27,-43.75
-8.11,-4.94,1.57,1.36,-37.65,-34.54
-8.4,-4.96,1.57,3.68,-32.65,-26.86
-8.78,-4.89,1.22,-0.04,-28.5,-21.86
-8.85,-5.3,1.88,0.51,-26.86,-23.99
-9.39,-5.65,1.74,5.81,-21.43,-33.32
-9.5,-5.55,1.51,10.69,-16.25,-36.86
-9.74,-5.94,1.18,15.75,-13.38,-41.56
-9.98,-5.86,1.4,16.12,-8.56,-42.65
-10.61,-5.67,1.34,12.64,-3.44,-49.06
-11.41,-5.58,1.19,10.33,2.23,-60.46
-11.99,-5.43,1.2,9.96,3.57,-75.15
-12.24,-5.23,0.94,9.96,-0.45,-89.48
-12.09,-4.93,0.62,11.85,-4.54,-105.82
-11.61,-4.85,0.36,15.69,-9.11,-121.74
-10.92,-4.65,0.21,18.25,-9.3,-138.08
-10.5,-4.23,0.15,20.08,-2.77,-153.2
-10.2,-4.05,0.37,23.5,-6.61,-167.83
-9.71,-4.09,0.06,23.92,-11.31,-182.41
-8.76,-3.96,-0.22,32.7,-14.54,-197.83
-7.64,-4.06,-0.05,41.79,-11.49,-206.43
-6.93,-3.88,0.25,43.44,-10.15,-213.32
-6.26,-4.29,0.72,45.75,-11,-222.22
-5.37,-4.16,0.46,49.96,-17.83,-229.54
-4.37,-4,0.94,42.64,-35.39,-234.72
-3.12,-4.34,0.39,39.05,-47.4,-240.4
-1.63,-5.06,0.19,45.81,-53.14,-234.48
-0.9,-5.05,0.38,48.62,-52.53,-223.51
-0.4,-5.27,0.41,52.83,-48.26,-218.2
-0.04,-5.07,1.77,51.73,-55.51,-214.48
0.81,-5.94,1.88,49.35,-82.53,-215.46
2.2,-5.99,1.3,46.79,-77.1,-211.98
3.44,-6.16,1.31,53.44,-54.66,-200.15
3.21,-6.11,1.75,54.17,-49.29,-190.33
3.15,-6.49,1.81,52.4,-65.09,-191.19
3.55,-6.48,2.57,53.19,-99.96,-195.21
4.57,-6.66,2.57,51.97,-121.18,-199.85
6.09,-6.99,1.63,51.18,-100.82,-203.2
6.03,-6.76,2.29,52.28,-83.87,-203.57
6.76,-6.41,2.12,44.53,-76.43,-201.86
7.49,-6.45,1.97,39.9,-80.09,-192.65
8.18,-7.17,1.33,41,-71.55,-184.12
8.42,-6.78,1.92,39.11,-68.62,-173.69
8.93,-7,1.96,39.96,-76.98,-168.26
9.78,-6.69,1.85,43.31,-58.14,-156.98
10.59,-7.14,2.53,38.74,-69.11,-138.69
10.87,-6.88,2.28,44.41,-66.43,-111.31
10.95,-6.97,2.33,41.67,-51.43,-97.04
11.05,-6.92,2.87,37.16,-35.82,-79.54
11.16,-7.14,2.7,32.83,-21.25,-63.99
11.28,-7.07,3.03,29.78,-19.72,-48.14
11.12,-7.23,3.06,26.24,-21.12,-31.37
10.87,-7.57,2.9,27.46,-24.78,-21.86
10.58,-7.43,2.9,26.06,-26.37,-13.39
10.56,-7.18,2.96,19.72,-23.26,-3.57
10.78,-7.27,3.16,9.72,-20.03,9.54
10.68,-7.3,2.98,3.07,-17.16,23.99
10.47,-7.31,2.41,-0.1,-17.53,34.3
10.49,-7.31,2.15,0.39,-10.21,45.15
10.75,-6.88,2.06,-3.51,3.51,57.96
11.19,-7.08,1.65,6.3,26.74,73.14
10.69,-6.64,1.74,6.73,64.79,89.24
9.78,-6.35,2.71,-3.21,54.91,109.36
9.15,-6.72,2.83,-11.08,22.96,123.26
8.54,-6.38,3.01,-18.51,11.44,137.71
8.4,-6.57,2.77,-18.27,11.56,151.43
7.84,-6.68,2.55,-15.59,18.2,164.36
6.72,-6.88,2.73,-11.69,18.33,166.92
5.8,-6.76,2.89,-7.17,6.07,169.72
4.87,-6.5,2.82,1.36,-7.4,174.3
3.93,-6.34,2.72,4.66,-13.26,181.92
3.15,-6.12,2.77,7.1,-16.43,191.49
2.85,-5.78,2.87,7.83,-15.03,201.12
2.29,-5.61,3.03,8.19,-10.76,219.48
1.45,-5.15,2.81,5.39,-6.37,241.8
0.15,-4.96,2.11,2.83,0.46,253.87
-1.04,-4.6,1.51,11.36,8.2,255.21
-2.07,-4.2,1.51,18.19,14.55,240.21
-2.81,-3.91,1.87,17.09,3.63,219.23
-3.02,-3.6,1.67,8.86,-5.45,208.02
-3.06,-3.36,0.81,1.3,-0.58,205.15
-3.24,-3.37,0.87,15.08,-2.1,212.71
-3.63,-2.97,-0.39,26.91,-3.2,221.73
-3.94,-2.43,-0.37,39.78,-8.32,241.31
-5.39,-1.64,0.45,44.66,-14.84,246.37
-7.73,-1.14,1.34,35.45,-10.7,218.14
-9.03,-1.19,1.95,33.25,-9.97,186.31
-9.45,-1.4,1.5,29.47,-8.81,158.08
-9.25,-1.47,1.31,33.62,-22.34,139.72
-9.16,-1.68,0.9,36.49,-42.65,130.15
-8.97,-1.65,1.13,35.02,-49.84,131.37
-10.55,-1.02,1.64,33.74,-40.82,132.83
-12.12,-0.84,2.03,29.72,-25.64,112.95
-13.23,-0.72,2.41,25.57,-19.36,87.71
-13.09,-1.03,1.85,22.09,-18.75,65.46
-12.48,-1.16,1.74,25.57,-12.95,53.93
-12.77,-0.74,2.02,22.83,-12.83,52.71
-13.75,-0.98,2.6,21.49,-29.9,38.93
-14.31,-0.66,2.41,15.45,-39.54,21.19
-14,-1.03,2.22,10.2,-42.47,-2.17
-12.87,-1.15,1.89,11.61,-39.97,-13.63
-11.94,-1.17,1.73,13.86,-33.87,-14.97
-11.93,-1.36,1.93,15.02,-29.11,-16.56
-11.8,-1.42,1.82,13.25,-33.69,-23.87
-11.31,-1.58,1.57,12.52,-39.66,-35.64
-10.32,-1.63,1.53,14.41,-39.17,-42.17
-9.52,-1.64,1.54,13.5,-34.29,-41.37
-9.17,-1.65,1.64,10.51,-30.7,-39.6
-9.19,-1.94,1.7,7.16,-31.37,-40.64
-9.13,-1.83,1.62,6.49,-29.72,-43.2
-8.92,-1.86,1.49,7.7,-25.51,-42.59
-8.83,-1.92,1.59,12.03,-23.01,-40.46
-8.79,-1.92,1.69,12.7,-23.81,-37.1
-8.92,-2.08,1.66,14.23,-28.26,-36.25
-8.88,-2.13,1.74,16.85,-34.11,-34.24
-8.84,-2.32,1.81,18.8,-38.14,-35.46
-8.99,-2.21,2.09,17.09,-36.25,-37.1
-9.05,-2.21,2.22,13.25,-33.14,-39.6
-9.15,-2.34,2.07,13.44,-26.55,-43.75
-8.97,-2.44,1.96,14.72,-24.84,-44.36
-9.01,-2.58,2.02,16,-28.93,-46.07
-8.94,-2.49,1.87,16.73,-33.75,-45.58
-8.97,-2.53,2.06,15.45,-37.28,-46.86
-8.9,-2.62,1.92,13.5,-39.42,-49.42
-8.99,-2.66,1.79,14.05,-33.62,-54.85
-8.61,-2.79,2,15.63,-28.62,-54.48
-8.5,-2.81,2.13,14.11,-30.45,-50.58
-8.32,-2.96,2.01,15.94,-34.9,-44.36
-8.37,-3.08,2.03,16.73,-39.42,-40.64
-8.35,-3.18,1.99,15.69,-41.31,-39.79
-8.32,-3.14,1.96,17.46,-36.67,-38.38
-8.2,-3.18,2.12,18.38,-30.33,-36.92
-8.32,-3.24,2.27,17.09,-29.84,-34.85
-7.91,-4.35,0.78,16.49,-18.08,-30.58
-8.51,-4.68,0.95,18.44,-18.08,-31.07
-8.55,-4.42,1.22,18.44,-17.89,-36.98
-8.37,-4.47,1.43,15.45,-22.59,-36.25
-8.65,-4.54,1.43,9.23,-31.31,-36.31
-9.14,-4.58,1.65,-2.78,-43.56,-46.98
-9.27,-4.78,1.32,-6.93,-48.62,-56.25
-9.27,-4.66,1.22,-7.48,-53.2,-63.45
-9.19,-4.24,1.15,-4.06,-48.26,-60.03
-9.36,-4.49,1.4,3.99,-38.2,-48.38
-10.02,-4.33,0.86,3.07,-28.2,-37.47
-10.02,-4.81,0.99,5.57,-18.38,-36.74
-10.46,-4.93,0.79,6.55,-11.06,-40.46
-10.72,-5.06,0.31,9.53,-8.01,-49.73
-11.02,-4.94,0.05,8.68,-8.87,-67.47
-11.51,-4.47,0.09,3.62,-8.93,-86.19
-11.59,-4.75,-0.2,5.2,-9.78,-98.93
-11.65,-4.71,-0.56,10.02,-10.03,-112.71
-11.3,-4.68,-0.37,15.45,-8.26,-125.27
-11.07,-4.63,-0.1,16.24,1.31,-138.75
-10.89,-4.79,-0.28,17.22,1.01,-157.29
-10.57,-4.56,-0.62,26,-8.56,-174.3
-9.95,-4.39,-0.68,37.22,-20.33,-180.46
-9.04,-4.66,0.58,58.98,-29.97,-191.92
-8.03,-4.33,-0.35,62.83,-39.11,-202.47
-6.89,-4.36,-0.03,64.53,-47.59,-211.13
-5.98,-4.47,0.3,57.03,-48.44,-213.93
-5.3,-4.74,1.07,63.86,-50.33,-219.72
-4.68,-4.48,0.34,79.35,-59.54,-220.21
-3.25,-5.08,0.56,80.08,-72.65,-226.07
-1.94,-4.95,0.36,79.11,-83.75,-227.96
-0.86,-5.2,0.97,76.73,-81.25,-220.64
-0.37,-5.11,1.32,70.63,-77.71,-211.37
-0.16,-5.18,1.86,64.23,-77.4,-202.59
0.27,-5.47,2.24,65.81,-85.09,-198.2
0.61,-5.64,2.52,65.51,-95.39,-200.82
1.5,-5.53,2.86,59.9,-105.7,-201.86
2.63,-5.61,2.13,57.09,-109.6,-196.74
3.45,-6.01,2.1,54.11,-102.4,-187.71
3.83,-6.14,2.18,50.45,-96.79,-186.92
3.84,-6.07,2.05,42.58,-94.17,-191.13
4.41,-6.01,1.9,45.14,-95.15,-193.81
5.23,-6.35,2.47,38.98,-78.56,-198.44
6.55,-6.53,2.82,40.39,-57.34,-199.05
6.76,-6.48,3.07,49.41,-72.77,-178.75
7.24,-7.32,2.88,69.66,-97.16,-153.51
8.31,-6.66,2.43,61,-99.36,-143.2
8.95,-6.9,2.7,49.9,-91.86,-144.6
8.99,-7.61,2.92,44.96,-78.44,-144.42
9.53,-7.08,3.46,44.41,-71.12,-133.93
9.99,-7.45,3.52,43.56,-71.61,-124.85
10.81,-7.59,3.72,39.23,-62.53,-110.76
11.1,-7.84,4.26,33.13,-54.54,-86.92
11.33,-7.78,4.43,20.33,-53.01,-63.57
10.97,-8.06,4.56,17.03,-47.4,-48.81
10.99,-8.19,4.26,17.52,-31.12,-38.02
10.72,-7.81,4.6,12.1,-18.32,-23.93
10.66,-7.74,4.22,10.88,-11.92,-9.3
10.11,-7.83,4.08,2.22,-10.33,8.5
10.01,-7.42,3.67,-11.01,-5.76,13.99
10.06,-7.4,3.29,-19.61,-0.88,24.91
9.9,-7.64,3.4,-18.27,4.73,38.75
10.03,-7.55,3.1,-21.2,18.02,54.85
9.59,-7.52,3.19,-24.98,26.62,69.72
9.02,-7.42,2.58,-23.76,30.28,86.25
8.4,-7.54,2.48,-14,37.11,97.53
8.23,-7.3,2.69,-7.72,46.13,105.7
8.36,-6.77,3.14,-6.69,58.02,119.54
8.22,-6.94,3.19,-16.93,72.41,139.17
7.23,-7.05,3.31,-23.76,80.34,149.17
6.11,-6.76,3.36,-26.93,71.5,162.65
4.92,-6.81,3.43,-32.11,54.97,163.02
4.21,-6.44,3.49,-38.33,43.2,159.78
3.85,-6.72,3.31,-36.32,32.47,167.53
3.39,-6.72,2.46,-32.48,28.45,175.09
2.55,-6.66,2.29,-23.45,21.31,185.64
1.64,-6.53,1.93,-19.31,23.14,193.69
0.31,-5.92,2.71,-28.27,31.68,182.83
-0.39,-5.55,3.45,-35.71,29.97,172.65
-0.33,-5.61,2.99,-39.25,18.94,173.81
-0.64,-5.66,1.73,-46.5,18.08,184.84
-1.72,-5.4,0.77,-43.51,26.74,197.83
-3.18,-5.3,0.5,-36.56,25.64,193.32
-7.25,-5.23,2.3,-37.54,-13.93,188.75
-2.55,-4.71,0.63,-40.22,-7.65,161.67
-5.19,-3.78,0.06,-43.09,-36.43,174.17
-4.94,-4.32,-0.3,-29.98,-18.32,162.47
-5.13,-4.02,-0.95,-27.29,-16.61,162.04
-5.93,-3.75,-0.73,-25.65,-25.76,166.92
-6.54,-3.4,0.15,-24.25,-42.1,163.56
-7.48,-3.24,-0.1,-32.42,-67.71,155.64
-7.43,-3.35,-0.64,-18.39,-67.47,137.04
-7.1,-3.37,-0.61,-12.36,-61.67,128.63
-7.35,-3.1,-0.59,-4.37,-57.71,136.49
-8.4,-2.96,0.06,1.73,-59.17,135.09
-9.24,-2.36,0.57,-1.08,-67.95,125.64
-9.97,-2.27,0.57,-8.82,-77.1,110.27
-10.55,-2.23,-0.35,-10.04,-78.93,97.35
-11.04,-2.43,-0.18,3.86,-79.23,80.82
-11.34,-2.23,0.19,15.02,-82.77,66.31
-11.21,-1.87,0.96,15.14,-80.82,53.99
-11.58,-1.94,1.04,7.77,-67.34,44.97
-11.83,-2.28,0.64,12.58,-51.31,39.54
-12.47,-2.24,0.84,18.19,-47.71,28.32
-12.43,-2.29,1.01,19.78,-60.76,16.07
-12.09,-1.98,1.59,14.23,-68.2,5.94
-11.97,-1.89,1.62,12.16,-63.01,-1.31
-11.47,-2.1,1.44,13.92,-44.78,-6.37
-11.52,-2.1,1.53,16.67,-36.37,-8.69
-11.78,-2.16,1.49,18.56,-39.6,-15.03
-11.71,-2.45,1.42,25.27,-48.5,-29.67
-10.89,-2,1.68,21.24,-52.47,-35.46
-10.35,-2.17,1.53,21.18,-51.61,-34.6
-9.87,-2.41,1.41,20.75,-37.89,-33.75
-9.97,-2.28,1.46,18.74,-32.34,-32.17
-9.84,-2.24,1.27,18.31,-30.76,-33.14
-9.52,-2.35,1.35,18.56,-28.32,-34.24
-9.29,-2.36,1.25,19.78,-26.43,-33.08
-9.36,-2.36,1.41,20.33,-27.59,-34.54
-9.27,-2.37,1.3,23.56,-34.23,-34.73
-8.98,-2.44,1.29,23.62,-31.31,-35.76
-8.8,-2.52,1.6,24.47,-25.82,-37.59
-8.61,-2.66,1.75,25.33,-27.04,-36.68
-8.49,-2.73,1.84,24.35,-29.66,-34.97
-8.47,-2.75,1.8,23.01,-31.86,-34.3
-8.52,-2.7,1.93,21.18,-28.14,-34.18
-8.41,-2.95,1.77,24.29,-27.16,-34.6
-8.35,-2.88,1.67,22.58,-25.82,-33.57
-8.39,-3.09,1.86,26.42,-27.59,-33.26
-8.52,-3.01,1.72,23.25,-30.15,-33.75
-8.63,-3.02,1.94,24.96,-33.81,-36.07
-8.46,-2.93,1.89,24.29,-33.01,-36.13
-8.41,-3.06,2,23.92,-27.71,-34.79
-8.72,-3,1.91,23.31,-28.75,-35.21
-8.58,-3.12,1.82,22.77,-33.44,-36.13
-8.4,-3.12,1.85,24.05,-35.03,-34.3
-8.47,-3.08,1.82,21.24,-30.7,-33.2
-8.6,-3.11,2.16,24.41,-24.6,-33.2
-8.67,-3.01,1.94,22.89,-26.92,-32.9
-8.67,-3.16,1.98,22.58,-31.37,-31.98
-8.37,1.33,3.57,54.96,8.27,-9.36
-6.9,-5.75,1.51,26,-14.6,-10.21
-7.3,-5.75,1.42,22.95,-17.22,-9
-7.54,-5.59,1.41,18.62,-16.19,-9.42
-7.65,-5.6,1.49,14.66,-18.08,-14.36
-7.47,-5.97,1.69,7.77,-24.17,-15.4
-7.31,-6.25,1.76,1.91,-28.69,-17.29
-7.45,-6.28,1.66,-0.53,-33.32,-17.47
-7.71,-6.38,1.48,1.67,-37.34,-22.47
-7.71,-6.12,1.47,6.3,-39.66,-25.03
-7.8,-5.97,2.92,7.52,-32.22,-20.4
-8.26,-5.94,1.6,6.36,-35.03,-6.56
-8.23,-6.22,1.62,2.89,-22.53,-2.84
-8.74,-6.47,1.49,4.29,-17.95,-2.65
-9.47,-6.24,1.77,4.05,-16.67,-11.92
-9.74,-6.22,1.46,2.34,-14.66,-20.21
-10.05,-6.09,1.23,3.31,-12.34,-27.96
-10.37,-5.85,1.06,3.62,-14.48,-35.34
-10.76,-5.66,0.78,3.56,-18.2,-44.24
-11.28,-5.33,0.46,4.78,-25.15,-56.86
-11.26,-5.09,0.38,4.23,-23.2,-73.32
-11.14,-4.91,0.27,9.9,-13.38,-90.27
-11.05,-4.79,0.38,12.77,-10.82,-105.64
-11.28,-4.54,0.57,12.64,-32.95,-126.19
-10.83,-4.3,0.39,12.1,-50.39,-145.76
-10.25,-4.23,0.27,13.86,-49.11,-168.2
-9.46,-4.14,0.45,15.51,-35.88,-185.27
-8.64,-4.19,0.55,17.4,-26.55,-197.53
-7.82,-4.24,0.53,15.75,-31.43,-201.8
-7.27,-4.31,0.71,15.88,-42.71,-207.9
-6.28,-4.26,0.53,19.11,-47.34,-211.68
-5.52,-4.44,0.59,20.63,-51,-211.31
-5.19,-4.34,1.05,13.62,-63.38,-209.36
-4.57,-4.67,0.77,16.61,-82.34,-214.18
-3.53,-5.22,0.12,20.51,-83.01,-225.88
-1.86,-5.49,-0.06,24.78,-69.54,-234.54
-0.95,-5.59,0.74,27.89,-55.58,-234.42
-0.14,-5.51,1.01,23.01,-45.21,-236.37
-0.19,-5.5,1.27,17.28,-55.7,-241.98
0.78,-5.46,0.68,13.44,-73.62,-245.76
2.43,-5.48,0.76,12.52,-90.33,-234.05
3.71,-6.07,0.22,13.38,-81.92,-231.19
4.61,-6.14,1.17,20.57,-65.15,-218.99
4.91,-6.2,1.15,27.52,-67.59,-207.35
5.7,-6.48,0.53,31.49,-71.79,-194.85
6.64,-6.78,0.24,35.75,-66.06,-184.3
7.15,-6.92,0.35,38.01,-49.48,-184.66
8.19,-6.92,0.78,42.4,-34.17,-177.71
8.76,-7.13,1.22,41.85,-35.39,-158.14
9.14,-7.52,0.81,40.94,-39.6,-136.55
9.07,-7.7,0.98,45.75,-42.28,-124.12
9.91,-7.78,0.83,45.14,-31.06,-119.85
10.46,-8.05,1.32,45.88,-11.49,-115.95
10.97,-8.24,1.83,47.4,-3.32,-103.2
10.65,-8.46,2.38,48.56,-16.55,-83.14
10.61,-8.52,2.4,42.46,-31.19,-64.12
10.67,-8.82,2.55,36.67,-35.94,-51.13
10.79,-8.79,2.8,33.07,-26.31,-38.57
10.69,-9.22,2.97,26.67,-14.66,-30.52
9.98,-9.04,2.99,22.34,-14.72,-19.24
9.93,-8.99,2.48,14.17,-29.17,-7.9
9.74,-8.82,2.42,12.46,-30.94,-0.95
10.35,-8.33,2.64,1.85,-22.77,9.11
10.73,-8.47,2.08,0.33,-8.08,23.5
10.58,-8.2,2.02,0.27,0.1,39.85
10.47,-7.81,1.78,-0.28,-2.53,57.28
10.02,-7.84,1.49,-0.1,-15.7,70.58
9.96,-7.58,0.76,7.77,-28.14,82.53
10.07,-7.28,0.32,18.86,-42.4,91.13
10.68,-7.14,0.12,33.25,-47.59,101.67
11.02,-7.05,0.35,46.55,-29.48,116.86
10.91,-6.09,1.56,46.42,-9.23,145.45
10.21,-5.5,2,43.92,9.24,180.33
8.92,-5.8,1.9,46.48,19.42,211.73
7.56,-5.74,1.74,48.62,20.28,232.89
5.95,-5.66,1.63,54.29,19.3,247.95
4.46,-5.35,1.83,59.23,22.23,257.1
2.57,-4.57,2.14,58.8,32.72,258.93
0.99,-3.54,2.77,52.16,25.09,254.97
0.28,-3.1,2.76,41.48,4.36,257.1
-0.09,-2.91,2.67,29.66,-2.83,272.47
-1.12,-2.73,2.46,21.18,17.47,274.11
-2.52,-2.17,2.21,16.61,43.45,262.95
-4.12,-1.77,2.76,11.18,56.25,242.1
-5.48,-0.91,2.57,4.6,56.68,231.06
-6.42,-1.06,2.26,-8.21,61.62,228.56
-7.75,-1.2,1.99,-14.06,52.17,214.42
-8.61,-1.59,1.15,-23.03,30.22,184.54
-9.51,-1.68,0.41,-17.29,2.29,158.08
-9.21,-1.81,-0.03,-8.03,-8.38,140.94
-9.17,-2.1,-0.25,12.83,-3.44,132.53
-10.15,-1.98,0.42,25.63,-3.08,118.93
-10.99,-1.8,0.88,25.08,-16.49,103.69
-11.35,-1.76,0.96,15.51,-29.36,89.36
-11.35,-1.83,0.68,8.86,-31.98,82.71
-12.1,-2.04,-0.44,8.25,-15.21,72.77
-13.43,-2.55,-0.13,27.22,1.31,50.88
-13.51,-2.52,0.26,33.8,-8.2,36
-13.8,-2.3,1.02,29.66,-34.42,17.53
-13.62,-2.5,0.75,21.61,-57.83,1.74
-13,-2.63,0.56,22.83,-60.27,-11.25
-11.9,-3.15,0.27,24.78,-47.4,-20.76
-11.23,-3.24,0.38,32.34,-35.15,-17.71
-11.06,-3.07,0.78,34.05,-31.86,-17.35
-11.1,-2.97,1.34,31.3,-43.38,-21.86
-10.8,-3.11,1.26,26.55,-55.7,-31.92
-10.26,-3.37,1.36,27.16,-56.37,-40.4
-9.38,-3.23,1.36,26,-43.56,-38.08
-9.19,-3.24,1.5,25.88,-30.39,-36.37
-9.39,-3,1.84,23.25,-27.83,-35.28
-9.42,-3.32,1.8,21.49,-34.9,-36.98
-9.2,-3.46,1.33,19.35,-43.81,-39.91
-8.64,-3.81,1.34,21.55,-42.89,-39.91
-8.5,-3.63,1.62,23.44,-38.14,-37.04
-8.61,-3.67,2,20.57,-35.39,-36.49
-8.56,-3.9,1.97,20.02,-33.99,-36.31
-8.54,-3.92,2.04,18.8,-38.01,-36.74
-8.32,-3.85,2.28,18.38,-40.51,-38.14
-8.06,-3.82,2.27,17.22,-41.18,-35.4
-8.09,-3.92,2.34,15.08,-41.98,-34.3
-8.19,-3.95,2.16,13.56,-42.28,-34.97
-8.12,-4.26,1.95,14.66,-42.59,-37.41
-7.92,-4.29,1.99,19.11,-41.98,-37.1
-7.59,-4.17,2.05,21.49,-36.06,-33.2
-7.58,-4.1,2.21,21,-25.51,-28.39
-8.07,-4.07,2.4,18.56,-24.05,-28.69
-8.22,-4.11,2.29,15.94,-31.19,-33.2
-7.85,-3.97,2.15,15.02,-34.42,-32.41
-7.52,-4.12,2.18,15.33,-31.12,-28.02
-7.8,-4.14,2.07,15.27,-28.26,-23.32
-8.18,-4.02,2.12,15.02,-26.86,-22.71
-8.12,-4.02,1.89,15.69,-26.49,-24.42
-8.07,-4.02,1.84,15.2,-27.95,-24.24
-8.35,-4.05,2.06,14.59,-26.98,-26.49
-8.3,-4.14,1.82,15.69,-30.51,-28.63
-8.13,-4.16,2.05,14.59,-33.38,-27.17
-8.19,-4.26,1.73,14.9,-31.67,-25.89
-8.09,-4.27,1.77,19.47,-30.39,-26.92
-8.03,-4.25,1.95,19.72,-30.7,-24.97
-8.03,-4.19,1.91,20.27,-30.64,-24.12
-8.83,0.33,3.73,48.92,1.07,-7.53
-7.7,-4.77,1.83,22.83,-24.48,-13.51
-8.26,-4.48,1.76,19.17,-22.47,-19.42
-8.27,-4.44,1.8,15.45,-20.64,-27.17
-8.04,-4.46,2.01,7.58,-24.72,-28.08
-7.81,-4.75,1.99,0.39,-27.83,-28.14
-7.94,-4.97,1.41,3.62,-27.04,-28.32
-8.19,-4.54,1.37,11.85,-27.65,-26.8
-8.45,-4.26,1.58,15.94,-30.7,-26.01
-8.42,-4.11,1.92,11.3,-34.54,-19.6
-9.04,-3.46,2.2,3.31,-35.58,-18.08
-8.82,-4.52,1.7,4.29,-34.29,-19.42
-8.76,-4.62,1.78,4.17,-26.49,-23.32
-8.71,-4.49,1.53,9.05,-21.25,-26.49
-8.78,-4.6,1.64,12.22,-20.45,-24.54
-8.95,-4.78,1.45,12.95,-22.77,-23.87
-9.21,-4.85,1.35,15.51,-21.67,-27.71
-9.44,-4.62,1.56,15.2,-18.2,-29.85
-9.88,-4.58,1.68,14.9,-10.94,-30.09
-10.44,-4.62,1.74,11.12,-12.95,-35.21
-10.82,-4.76,1.44,10.14,-23.93,-43.38
-10.86,-4.58,1.3,8.62,-29.72,-54.24
-10.68,-4.74,1.07,9.17,-23.99,-61.68
-10.76,-4.7,1.11,14.05,-11.61,-67.41
-11.23,-4.52,1.39,13.5,-8.08,-76.13
-11.28,-4.45,0.98,12.95,-18.69,-91.8
-11.03,-4.64,0.93,13.01,-36,-105.52
-10.32,-4.67,0.64,14.84,-46.31,-119.36
-9.61,-4.68,0.76,14.66,-38.75,-129.05
-9.33,-4.66,1.02,14.78,-28.32,-135.94
-9.26,-4.88,0.99,17.46,-33.38,-145.27
-8.96,-4.87,1.07,18.38,-46.92,-156.25
-8.33,-4.47,1.23,13.68,-52.83,-166.31
-7.38,-4.96,0.87,10.88,-43.26,-172.35
-6.87,-4.96,0.97,10.57,-35.76,-176.92
-6.66,-5.2,1.01,8.44,-41.98,-180.21
-6.29,-5.6,0.73,11.85,-50.64,-184.05
-5.72,-5.71,0.53,16.24,-55.27,-191.07
-4.93,-5.53,0.59,19.47,-58.14,-192.53
-4.45,-5.19,0.85,17.28,-50.39,-191.68
-3.74,-5.4,0.99,16.42,-43.32,-191.25
-3.5,-5.68,1.11,15.02,-50.82,-191.01
-3.04,-6.01,0.77,16.42,-67.04,-198.2
-1.91,-5.95,0.27,17.58,-69.78,-203.87
-0.48,-5.92,0.97,12.03,-62.71,-199.72
-0.33,-6.09,1.3,13.13,-57.89,-192.29
-0.42,-6.19,1.14,11.49,-81.79,-193.32
0.38,-6.45,0.53,21.42,-104.29,-195.46
1.58,-6.43,0.54,25.57,-107.34,-195.82
2.57,-6.54,0.93,28.19,-104.84,-191.43
3.05,-6.27,1.31,24.9,-104.6,-180.7
3.41,-6.79,1.19,20.14,-117.34,-177.47
4.04,-6.74,0.65,23.62,-102.59,-180.21
4.3,-6.46,1.25,25.39,-71.25,-174.24
3.78,-7.2,1.63,27.28,-62.59,-167.35
4.69,-7.89,1.17,26.55,-83.44,-166.13
7.15,-7.78,1.21,31.36,-81.67,-155.21
8.21,-7.29,1.44,29.84,-62.65,-139.48
8.33,-7.8,1.48,30.75,-46.61,-128.69
8.64,-8.19,1.28,28.13,-38.26,-121.43
9.04,-8.95,0.77,29.66,-29.48,-109.24
9.09,-9.46,0.22,33.5,-31,-100.27
8.87,-8.83,0.81,37.09,-35.03,-95.7
8.95,-8.96,1.54,36.91,-46.55,-89.54
9.42,-8.83,1.81,35.88,-40.45,-81.86
9.38,-8.87,1.75,34.29,-30.51,-72.35
8.91,-9.04,1.58,32.4,-31.06,-64.24
8.99,-9.02,1.62,31.49,-40.88,-59.97
9.23,-8.71,1.92,28.07,-44.72,-47.9
8.92,-8.54,2.2,25.45,-38.14,-38.26
8.62,-8.6,2.09,21.79,-28.87,-35.4
8.11,-8.18,2.12,18.38,-17.22,-29.73
7.63,-8.23,1.8,9.84,-30.39,-22.59
7.42,-8.12,1.71,9.96,-37.22,-17.84
7.59,-7.96,1.88,9.05,-32.1,-15.15
7.48,-7.82,1.99,7.7,-25.51,-12.9
7.8,-8.02,1.82,6.49,-15.45,-11.19
8.05,-8.23,1.36,8.86,-13.26,-5.34
7.75,-8.17,1.35,12.46,-27.59,-0.21
7.45,-8,1.55,14.17,-39.11,-0.28
7.74,-8.15,1.5,14.59,-37.16,0.03
8.24,-8.04,1.31,16.06,-29.78,3.81
8.99,-7.92,1.25,14.35,-20.33,15.64
9.19,-7.96,1.02,11,-22.95,35.82
9.32,-8.28,0.6,16.49,-23.08,49.97
9.52,-7.83,0.59,23.01,-13.26,63.81
9.29,-7.86,0.25,32.95,-6,77.59
9.85,-7.88,-0.33,46.24,-3.14,89.54
9.85,-7.73,-0.33,59.84,8.81,109.97
9.71,-7.5,0.23,65.81,12.9,133.32
8.65,-6.66,0.69,63.5,16.38,163.69
7.62,-6.55,0.94,59.47,8.2,184.42
6.73,-6.51,0.94,64.9,13.81,199.23
5.17,-6.24,1.33,74.72,37.29,210.64
2.33,-5.76,2.32,77.16,36.44,205.52
0.44,-4.87,2.61,69.47,10.64,183.93
0.38,-4.97,2.55,62.09,-7.16,168.38
1.23,-5.36,2.12,64.41,-6.55,168.2
0.92,-5.34,2.3,68.62,6.13,187.89
-0.44,-4.69,3.06,70.45,13.75,202.04
-2.24,-4.03,4.04,60.45,10.16,194.78
-3.22,-3.62,4.3,43.74,-6.86,170.64
-2.91,-3.93,3.63,30.02,-10.39,161.37
-2.37,-4.26,3.05,28.5,3.45,165.21
-2.13,-4.72,2.62,34.05,27.78,179.97
-3.03,-4.37,2.74,36.06,37.23,197.89
-4.91,-3.55,2.89,33.68,33.51,200.15
-6.7,-2.48,3.2,34.05,19.79,186.31
-7.59,-2.27,3.48,26.3,10.95,168.32
-6.85,-2.98,3.16,19.05,12.05,153.93
-5.73,-3.15,2.4,16.55,27.96,162.83
-6.54,-2.93,1.9,25.45,52.23,180.21
-8.48,-2.12,1.74,34.47,67.59,184.66
-9.99,-1.45,2.01,38.98,65.09,171.37
-10.89,-1.02,2.68,35.08,42.41,149.78
-10.74,-1.11,2.46,19.53,16.99,131.67
-10.44,-1.48,2.01,13.38,4.61,125.39
-10.33,-1.65,1.2,17.89,4.36,125.64
-10.99,-1.4,0.95,30.63,7.29,117.89
-12.18,-0.69,1.57,32.52,8.75,97.83
-13.82,-0.17,2.13,24.47,2.41,71.07
-14.02,-0.11,1.92,19.72,-13.87,50.88
-13.48,-0.61,1.5,17.77,-25.76,31.49
-12.9,-0.66,1.47,21.79,-32.34,19.66
-12.65,-0.8,1.32,22.34,-30.45,8.87
-12.66,-0.7,1.62,23.25,-29.97,-2.65
-12.59,-0.66,1.82,22.28,-39.17,-14.91
-11.88,-0.83,1.74,21.3,-53.99,-24.24
-10.86,-1.17,1.63,20.81,-57.83,-29.85
-10.02,-1.08,1.66,22.46,-44.84,-33.2
-9.78,-1.13,1.71,21.97,-27.95,-33.93
-9.96,-1.36,1.81,20.33,-25.09,-34.91
-9.8,-1.44,1.67,21.3,-34.54,-36.31
-9.29,-1.59,1.56,21.18,-39.9,-39.54
-9.14,-1.19,2.05,22.83,-31.98,-41.56
-8.93,-1.71,1.99,19.59,-25.58,-42.23
-9,-1.62,2.05,21.79,-25.7,-40.58
-8.88,-1.68,1.91,20.51,-30.15,-38.57
-8.88,-1.59,1.96,21.97,-26.79,-38.87
-8.76,-1.59,2.04,19.78,-25.76,-38.87
-8.75,-2.46,0.64,24.47,-19.23,-26.25
-9.12,-2.6,1.36,26.97,-25.39,-29.73
-8.88,-2.56,1.4,24.41,-26.79,-29.36
-8.74,-2.71,1.45,20.94,-28.01,-27.41
-8.8,-2.68,1.72,16.12,-31.12,-22.23
-8.98,-2.71,1.36,11.49,-31.92,-21.86
-9.17,-2.62,1.31,9.11,-32.28,-26.31
-9.2,-2.65,1.25,8.19,-35.64,-31.37
-8.97,-2.55,1.34,7.58,-36.12,-30.34
-8.81,-2.5,1.36,10.08,-33.56,-25.21
-9.02,-2.75,1.25,9.72,-29.42,-22.65
-8.53,-2.73,1.89,13.62,-23.44,-19.67
-9.11,-2.63,0.96,13.13,-27.47,-26.8
-9.17,-2.95,1.4,15.81,-26.61,-27.78
-9.18,-2.89,1.35,16.91,-23.99,-29.97
-9.18,-2.78,1.37,17.7,-22.47,-29.6
-9.08,-2.68,1.29,17.58,-21,-27.78
-9.32,-2.84,1.36,15.51,-22.16,-27.9
-9.3,-3,1.32,15.63,-23.08,-28.32
-9.55,-2.96,1.33,16.73,-20.94,-31.31
-9.84,-2.7,1.64,15.63,-21.43,-34.54
-9.94,-2.75,1.26,14.11,-25.21,-34.79
-10.34,-2.84,1.09,15.57,-26.19,-37.59
-10.66,-2.87,1.17,16.61,-24.97,-43.81
-11.05,-2.89,1.34,16.55,-28.69,-51.37
-11.12,-2.83,1.17,15.69,-35.21,-60.4
-10.99,-2.94,0.96,14.41,-37.95,-67.35
-11.04,-2.95,1,14.59,-37.28,-75.09
-10.76,-3.01,0.78,15.57,-30.15,-81.8
-10.69,-3.17,0.86,15.69,-25.45,-87.84
-10.85,-3,1.02,17.46,-24.29,-95.34
-11.01,-2.97,1.16,14.41,-31.61,-103.38
-10.92,-3.19,0.92,13.68,-42.16,-114.79
-10.56,-3.24,0.72,13.25,-46.49,-127.65
-10.02,-3.4,0.61,12.77,-45.21,-138.2
-9.43,-3.79,0.5,16.91,-40.82,-145.58
-9.12,-3.87,0.6,22.16,-35.58,-152.9
-8.89,-3.81,0.84,22.95,-41.18,-157.65
-8.59,-4.07,0.74,21.49,-47.28,-164.05
-7.97,-4.32,0.35,25.39,-46.37,-171.25
-7.43,-4.48,0.65,28.92,-39.6,-175.82
-7.38,-4.35,0.87,29.66,-37.65,-181.74
-6.89,-4.57,0.86,29.78,-44.23,-181.74
-6.3,-4.92,0.81,32.22,-50.15,-179.73
-5.84,-5.14,0.96,33.31,-55.82,-178.02
-5.51,-5.21,1.16,33.5,-49.9,-179.05
-5.12,-4.9,1.68,25.81,-44.78,-177.9
-5.08,-4.91,1.82,12.58,-58.68,-178.69
-4.74,-5.64,1,10.69,-76.61,-187.83
-4.33,-5.69,1.2,14.84,-89.66,-201.92
-3.35,-5.58,1.17,14.96,-101.31,-215.52
-2.42,-5.57,1.25,11.49,-113.99,-223.26
-1.65,-5.5,1.18,4.66,-129.23,-229.6
-0.59,-5.69,0.61,3.38,-138.44,-232.83
0.22,-6.18,0.24,7.03,-139.54,-244.85
1.43,-5.78,0.51,8.31,-132.83,-249.18
2.59,-5.72,1.06,5.75,-136.12,-239.36
3.89,-6.03,0.46,10.63,-133.62,-228.44
5.17,-6.45,0.69,11.73,-112.53,-214.97
6,-6.33,1.24,11.18,-80.03,-202.65
5.74,-6.34,1.82,8.86,-63.75,-192.71
5.58,-6.8,1.23,10.45,-64.11,-198.08
6.11,-7.12,0.84,13.74,-58.93,-204.3
7.27,-6.89,1.48,11.85,-44.72,-203.32
8.5,-6.46,1.83,8.38,-26.49,-178.32
8.61,-7.36,1.58,13.56,-7.28,-150.58
8.91,-7.48,1.3,19.84,4.42,-136.86
9.19,-7.68,1.61,25.63,14.49,-122.04
9.11,-8.03,1.34,31.79,22.11,-113.57
8.61,-7.86,1.78,34.17,15.95,-106.49
8.19,-7.88,1.6,35.63,0.95,-105.76
8.56,-8.14,2.16,43.5,-16.06,-107.9
9.77,-7.98,3.33,42.95,-25.33,-105.09
10.5,-8.01,3.97,36.06,-24.78,-91.37
11.06,-8.18,4.05,22.77,-22.1,-74.67
11.53,-8.15,3.82,13.44,-15.94,-60.95
12.03,-7.85,3.76,4.66,-10.7,-43.38
12.22,-7.87,3.46,0.63,-7.28,-23.51
11.94,-7.8,2.96,-1.69,-8.08,-9.42
11.87,-7.52,2.54,-2.3,-11.86,4.11
11.92,-7.41,2.61,-4.86,-16.86,23.2
12.18,-7.39,2.05,-4.43,-11.8,43.44
12.01,-7.13,2.23,-6.26,4.49,62.65
11.61,-7.03,2.28,-5.59,15.09,81.37
11.27,-7.19,2.22,-2.6,26.5,96.61
10.85,-6.93,2.38,-1.56,37.66,115.7
10.23,-6.8,2.47,-0.95,49.3,132.35
9.24,-6.87,2.31,2.52,52.53,140.76
8.72,-6.84,2.31,8.07,58.45,142.34
7.91,-6.37,2.88,2.89,56.68,154.3
7.11,-6.16,3.53,-10.28,41.19,171.25
5.65,-5.58,3.72,-33.21,12.59,185.15
5.13,-5.79,2.89,-39.79,2.66,185.39
4.48,-5.88,2.3,-34.49,-0.51,184.97
3.89,-6.2,1.85,-18.58,-7.4,183.56
3.15,-5.97,1.78,-1.2,-14.72,185.82
2.26,-5.39,2.27,5.27,-13.87,193.44
1.3,-4.66,2.29,0.33,-5.33,202.28
1.06,-4.36,1.9,-4.43,12.41,208.81
0.18,-4.1,1.58,-7.54,33.81,213.62
-1.23,-3.76,1.61,-13.03,45.09,221.86
-2.6,-3.24,1.06,-21.56,48.33,223.5
-3.71,-3.05,1.14,-22.54,42.9,213.93
-4.19,-2.74,1.19,-27.97,20.7,201.8
-4.78,-2.67,1.17,-37.97,-5.15,195.58
-5.16,-2.88,0.39,-38.51,-17.22,192.59
-6.01,-2.96,0.13,-30.83,-11.86,184.23
-6.93,-2.56,0.16,-19.73,-12.71,164.17
-7.39,-2.31,0.47,-19.43,-39.42,151.98
-7.51,-2.23,0.15,-25.28,-58.01,152.71
-7.77,-2.49,-0.59,-25.04,-56.31,152.28
-8.62,-2.33,-0.2,-16.2,-57.04,146.92
-9.21,-2.48,-0.13,-5.53,-70.94,138.93
-9.46,-2.13,0.47,-1.14,-84.97,131.37
-10.04,-1.64,0.13,-5.1,-80.27,128.99
-10.84,-1.79,-0.28,-1.01,-63.93,124.3
-11.77,-1.89,-0.53,6.36,-54.6,105.82
-12.07,-1.68,-0.51,9.41,-49.78,92.16
-12.69,-1.43,-0.43,14.9,-36.79,86.13
-13.74,-1.34,0.21,16.18,-34.29,77.41
-14.45,-1.54,0.22,15.51,-42.83,59.6
-14.21,-1.93,0.16,18.56,-53.32,41.37
-13.56,-2.02,0.16,25.51,-53.81,28.81
-13.24,-1.75,0.82,30.51,-53.87,20.39
-12.95,-1.95,1.16,31.49,-56.86,9.05
-12.37,-1.86,1.5,30.33,-57.1,0.27
-12.01,-1.79,1.56,25.33,-51.55,-11.98
-11.14,-1.92,1.3,23.92,-44.54,-20.7
-10.56,-2.03,1.38,24.78,-39.97,-23.57
-10.03,-2,1.33,24.23,-38.87,-22.23
-9.97,-2.23,1.16,27.16,-33.26,-25.34
-9.71,-2.07,1.38,24.78,-31.49,-28.32
-9.51,-2.15,1.54,23.38,-27.89,-29.97
-9.23,-2.23,1.37,22.46,-26.98,-28.57
-9.26,-2.22,1.54,22.89,-29.6,-27.35
-9.15,-2.34,1.45,22.89,-32.89,-29.18
-8.82,-2.34,1.44,22.52,-33.44,-28.69
-8.92,-2.16,1.62,21.79,-28.62,-32.96
-8.62,-2.41,1.66,21.18,-25.76,-32.78
-8.65,-2.4,1.85,21.73,-26.19,-29.3
-8.63,-2.42,0.39,23.8,-22.22,-28.57
-9.05,-2.84,0.98,26,-26.25,-29.97
-8.77,-2.77,1.02,22.83,-24.97,-23.81
-8.75,-2.76,1.04,21.24,-24.17,-20.4
-9.14,-2.67,1.27,18.01,-23.93,-18.63
-9.18,-2.79,1.17,15.39,-28.2,-19.54
-9.1,-2.92,1.1,15.69,-31.12,-24.42
-9.12,-3.01,1.18,13.25,-36.06,-30.03
-8.99,-2.96,0.98,12.64,-39.72,-34.79
-9.07,-3.08,1.1,15.45,-41.18,-35.4
-8.94,-2.52,0.78,14.11,-38.08,-32.29
-8.83,-2.74,0.95,11.61,-35.51,-25.09
-10.63,6.53,0.95,-11.93,-49.11,-23.93
-9.28,-2.65,0.86,5.51,-33.5,-25.21
-8.85,-2.96,1.12,8.62,-27.77,-23.69
-8.74,-2.87,0.79,11.24,-26.37,-23.69
-8.59,-3.14,0.89,14.53,-24.97,-21.86
-8.74,-3.05,0.83,17.64,-24.72,-22.35
-8.81,-3.01,1.04,18.01,-26.25,-22.41
-8.81,-2.96,1.06,18.19,-26.73,-20.28
-8.84,-2.96,1.03,19.47,-28.26,-21.01
-8.97,-2.86,1.1,18.5,-27.89,-23.32
-8.77,-3.01,0.95,17.4,-29.36,-23.08
-8.72,-3.13,0.97,18.99,-27.77,-23.14
-8.83,-2.98,1.12,19.29,-25.64,-21.19
-8.87,-3.01,0.99,18.5,-26.31,-20.89
-8.93,-2.81,1,18.56,-26.49,-20.64
-8.98,-3,0.95,16.85,-28.26,-21.8
-8.88,-3,0.89,18.31,-28.5,-20.89
-8.95,-2.98,0.96,18.56,-26.31,-21.49
-9.02,-3.04,0.94,17.83,-26.86,-22.71
-9.08,-3.04,0.84,16.85,-27.83,-23.2
-9.08,-2.96,1.02,16.85,-26.86,-24.67
-9.14,-3.04,0.95,16.24,-26.92,-24.12
-9.27,-3.13,0.88,18.01,-27.16,-24.79
-9.29,-3.1,0.9,18.44,-26.92,-25.58
-9.38,-3,0.98,16.73,-26.06,-27.41
-9.56,-2.98,1.08,16.06,-24.9,-26.25
-9.86,-3.14,1.03,14.84,-24.84,-28.75
-10.21,-3.09,0.95,14.78,-24.29,-31.56
-10.48,-3.06,0.89,14.17,-25.09,-35.52
-10.65,-3.14,0.89,13.62,-27.16,-40.21
-10.63,-3.18,0.85,14.23,-27.65,-43.81
-10.86,-3.44,0.86,13.8,-25.7,-48.2
-11.16,-3.35,0.96,13.74,-24.29,-55.28
-11.31,-3.35,0.94,13.13,-26.19,-62.96
-11.54,-3.14,0.91,10.51,-38.08,-72.29
-11.17,-3.38,0.76,10.27,-48.38,-79.42
-10.43,-3.5,0.54,10.88,-43.62,-83.93
-10.2,-3.51,0.59,12.1,-28.14,-88.02
-10.2,-3.57,0.55,13.38,-13.99,-94.97
-10.31,-3.57,0.49,14.23,-14.66,-100.7
-10.09,-3.75,0.36,15.45,-25.21,-106.8
-9.73,-3.66,0.17,16.55,-34.72,-111.62
-9.29,-3.85,0.2,19.23,-36.73,-115.82
-8.8,-3.84,0.37,20.02,-32.22,-119.12
-8.62,-3.97,0.41,20.63,-20.64,-123.75
-8.48,-4.12,0.48,21.49,-10.88,-127.23
-8.44,-4.43,0.49,23.99,-6.8,-128.63
-8.7,-4.47,0.6,25.27,-13.5,-132.9
-8.47,-4.58,0.43,26.91,-23.38,-138.2
-8.12,-4.8,0.23,31.36,-25.33,-144.42
-7.87,-4.8,0.45,34.78,-20.7,-152.41
-7.66,-4.79,0.73,34.9,-19.05,-160.27
-7.22,-5.04,0.76,35.69,-23.62,-164.12
-6.6,-5.43,0.61,37.89,-26.61,-166.37
-6.24,-5.38,0.56,40.33,-29.42,-171.62
-5.73,-5.34,0.69,43.44,-28.75,-175.58
-5.13,-5.28,0.53,44.05,-31.73,-176.86
-4.88,-5.58,0.52,44.35,-32.04,-180.88
-4.31,-5.91,0.6,44.53,-37.77,-182.35
-3.79,-6.33,0.76,41.61,-49.48,-182.23
-3.43,-6.17,0.85,42.46,-58.14,-185.15
-2.51,-6.01,1.13,45.33,-63.01,-186.13
-2.05,-6.34,1.12,41.97,-77.16,-184.42
-1.18,-6.66,0.7,38.98,-90.33,-186.37
0.27,-6.78,0.65,38.07,-80.51,-185.7
1.13,-6.59,1.25,36.61,-66.18,-175.15
0.87,-7.25,1.62,37.7,-57.89,-166.13
0.53,-7.09,1.91,28.38,-75.94,-168.32
1.67,-7.11,1.57,18.68,-87.4,-171.8
3.24,-7.44,1.71,10.08,-63.87,-169.66
3.39,-7.65,2.05,14.59,-48.62,-160.4
2.62,-7.91,1.83,15.81,-73.68,-156.31
3,-8.07,1.09,18.44,-100.45,-159.24
4.41,-7.52,1.34,13.01,-87.22,-170.21
5.89,-7.1,1.96,5.45,-47.1,-163.93
5.32,-7.77,1.92,-0.28,-45.09,-145.15
4.38,-8.17,0.96,0.69,-77.34,-138.93
5.04,-8.26,0.23,11.73,-89.48,-142.84
5.84,-8.35,0.14,21.91,-83.14,-146.68
6.54,-7.82,0.25,25.02,-69.72,-150.34
6.75,-7.52,0.48,22.09,-56.92,-148.2
6.56,-7.76,0.49,20.14,-52.77,-142.77
6.75,-8.13,-0.07,26.61,-50.88,-142.77
7.57,-7.5,0.39,35.69,-37.1,-137.16
7.66,-7.54,1.05,38.31,-35.39,-131.19
7.85,-7.98,1.03,40.88,-45.51,-128.45
8.55,-7.59,1.84,38.98,-37.59,-124.54
8.88,-7.89,1.59,33.19,-35.58,-118.51
9.68,-7.98,1.63,37.83,-35.82,-112.29
10.37,-7.81,1.99,37.64,-38.81,-98.51
11.11,-7.61,2.44,29.9,-28.08,-81.19
11.14,-7.92,2.46,26.18,-22.95,-63.99
10.79,-7.65,2.55,22.58,-14.9,-51.43
10.06,-7.51,2.4,18.62,-19.29,-43.57
9.99,-7.43,2.01,17.64,-30.15,-36.07
10.19,-7.18,2.03,12.95,-36.37,-22.71
10.3,-6.82,2.29,9.11,-30.03,-7.53
10,-7.1,2.08,3.92,-17.95,3.44
9.02,-6.87,1.9,2.34,-13.38,10.4
8.15,-7.18,1.06,7.64,-29.23,8.63
7.85,-7,0.76,14.84,-46.25,-0.21
8.44,-7.14,0.82,18.8,-53.01,-0.15
9.09,-6.74,1.45,14.23,-38.38,8.26
8.79,-6.72,1.57,6.18,-26.25,22.77
8.4,-7.04,0.73,7.4,-27.77,31.55
7.84,-7.42,0.23,15.08,-45.88,29.42
8.29,-7.58,0.33,22.58,-57.77,28.93
8.54,-7.5,0.52,26.97,-58.99,34.42
8.39,-7.57,1.17,28.19,-56.37,40.09
8.31,-7.42,1.13,25.45,-45.03,46.98
8.15,-7.72,0.96,24.9,-33.69,54.05
8.18,-7.93,0.5,33.44,-20.7,60.33
7.9,-7.63,0.25,41.61,-18.01,67.04
7.46,-7.16,0.84,38.98,-33.56,77.83
7.08,-7.37,1.12,32.4,-43.93,83.38
6.8,-7.73,1.11,33.38,-35.76,79.85
6.65,-7.82,0.7,40.39,-33.81,80.33
6.68,-8.06,0.39,53.92,-38.01,81.13
6.98,-7.88,0.47,64.66,-32.83,91.55
6.59,-6.98,1.99,52.83,-45.94,115.03
6,-7.16,1.66,45.2,-45.64,128.2
4.68,-7.13,1.55,43.44,-40.39,124.85
4.26,-7.37,1.46,49.47,-44.05,120.09
4.31,-7.84,0.9,60.63,-33.75,118.5
3.62,-7.93,1.34,72.64,-22.95,127.47
2.33,-7.27,2.32,66.67,-37.16,138.63
1.39,-6.88,2.63,54.05,-57.22,134.42
1.34,-6.99,2.72,47.89,-50.7,118.87
-9.1,-3.41,2.29,17.95,-16.98,-19.18
-8.35,-3.49,2.68,19.23,-15.09,-15.15
-8.47,-3.48,2.62,19.47,-20.15,-18.87
-8.49,-3.67,2.62,21,-24.78,-24.79
-8.43,-3.51,2.64,21.61,-28.01,-27.84
-8.11,-3.48,2.77,18.99,-29.29,-26.8
-8.14,-3.62,3.08,12.4,-33.56,-27.1
-8.31,-3.59,3.01,6.79,-38.08,-27.59
-8.3,-3.16,2.27,6.24,-37.89,-28.81
-8.2,-3.03,2.04,3.38,-33.08,-22.9
-8.32,-3.22,2.44,1.18,-32.47,-19.67
-10.58,-4,3.35,0.02,-31.19,-13.93
-8.84,-3.57,2.59,0.14,-33.01,-17.35
-8.48,-3.59,2.81,3.25,-28.08,-21.31
-8.48,-3.71,2.59,8.38,-23.44,-21.98
-8.77,-3.5,2.54,13.62,-20.39,-23.75
-8.83,-3.63,2.51,16.67,-17.83,-24.36
-9.01,-3.5,2.54,18.8,-16.31,-23.08
-9.26,-3.63,2.65,19.17,-17.83,-22.35
-9.82,-3.49,2.81,17.77,-20.09,-26.31
-9.77,-3.53,2.69,15.81,-21.73,-30.64
-9.96,-3.52,2.63,13.01,-23.08,-34.24
-10.03,-3.57,2.43,13.5,-17.47,-39.42
-10.53,-3.42,2.63,13.44,-10.27,-42.71
-11.09,-3.43,2.52,9.84,-8.99,-49.18
-11.33,-3.5,2.5,10.51,-12.95,-56.62
-11.56,-3.42,2.4,8.31,-19.05,-66.25
-11.42,-3.3,2.27,6,-17.95,-78.93
-11.48,-3.23,2.09,6.97,-13.32,-90.27
-11.59,-2.96,1.99,3.92,-6.86,-102.04
-11.74,-3.02,1.71,0.02,-7.22,-116.68
-11.45,-3.1,1.44,1.49,-10.88,-132.29
-10.89,-3.1,1.19,3.19,-14.54,-147.04
-10.51,-3.17,1.11,5.2,-19.48,-157.53
-10.04,-3.29,0.78,7.4,-26.67,-171.01
-9.54,-3.24,0.62,14.11,-37.34,-184.54
-8.67,-3.14,0.88,17.46,-44.54,-194.12
-7.72,-3.18,1.1,14.41,-47.34,-200.94
-7.38,-3.19,1.11,5.27,-44.11,-207.41
-6.92,-3.54,0.9,6.36,-44.11,-214.91
-6.28,-3.9,0.74,14.17,-43.08,-224.36
-5.43,-4.12,0.97,23.25,-42.59,-230.7
-4.81,-4,1.45,24.66,-50.82,-229.54
-4.28,-3.78,1.84,15.81,-65.21,-227.29
-3.78,-4.01,1.96,12.16,-73.14,-233.87
-2.55,-4.36,1.49,18.38,-68.07,-241.37
-1.28,-4.76,1.66,23.56,-53.87,-242.22
-0.66,-4.61,2.43,12.46,-55.58,-243.2
0.21,-4.78,2.22,6.73,-65.57,-243.57
1.35,-4.42,2.33,3.01,-52.59,-248.87
2.15,-4.92,2.45,-2.66,-43.38,-250.7
2.15,-5.2,1.9,-9.8,-56.49,-254.36
2.24,-5.48,0.97,-13.64,-88.38,-265.58
4.62,-5.47,0.5,-7.72,-82.22,-281.49
7.05,-5.52,0.88,0.69,-35.39,-272.53
7.76,-5.88,0.57,7.77,-16.25,-243.93
6.82,-6.77,-0.43,21,-38.2,-213.38
6.24,-6.51,-0.96,40.45,-53.2,-216.49
8.02,-5.73,-0.32,50.57,-44.42,-216.37
9.18,-5.97,0.06,58.31,-42.83,-206.13
9.76,-6.56,-0.32,73.5,-63.2,-190.27
10.35,-6.32,-0.05,82.77,-82.1,-177.16
12.29,-5.66,1.51,79.47,-49.97,-159.97
13.18,-6.22,2.84,71.42,-22.89,-133.32
13.13,-7.02,2.71,68.86,-22.83,-108.75
12.86,-7.72,2.87,65.94,-42.89,-93.2
13.47,-7.46,3.91,55.63,-49.23,-80.64
14.7,-7.47,4.62,41.61,-42.34,-57.53
15.35,-7.58,4.5,26.61,-27.4,-28.02
15.19,-7.3,4.27,11.24,-4.9,2.22
14.23,-7.24,3.94,-1.26,0.58,28.99
13.08,-7.52,2.95,-2.42,-7.1,46.49
11.74,-7.25,2.34,1.73,-23.62,59.05
11.27,-7.22,1.94,9.17,-33.01,66.8
11.34,-7.05,1.76,14.78,-30.03,77.71
11.01,-6.81,1.79,23.07,-19.84,91.8
10.29,-6.45,2.07,28.74,-15.27,105.52
9.18,-6.41,2.34,28.68,-49.6,115.45
8.97,-6.62,1.85,31.55,-77.59,120.33
9.29,-6.83,1.95,41.3,-73.26,129.66
9.2,-7.03,2.3,53.31,-43.5,146.31
8.43,-6.87,2.24,64.41,-4.66,161.06
7.06,-5.58,2.9,55.45,10.95,178.32
5.57,-5.64,3.29,39.17,-7.04,185.58
4.88,-5.79,2.74,31.97,-16.43,184.11
4.24,-6.16,2.38,30.33,-7.95,184.72
3.56,-6.14,1.88,34.17,8.88,183.14
2.88,-5.92,1.51,39.35,13.08,179.54
2.52,-5.69,1.34,43.92,8.02,181.67
2.06,-5.48,1.2,47.09,-5.27,193.2
1.69,-5.42,1.09,47.89,-7.77,200.21
1.34,-5.14,1.23,52.95,4.73,208.08
0.46,-5.08,1.54,55.14,27.11,214.05
-1.04,-4.21,1.87,47.89,35.22,206.43
-2.25,-3.58,2.49,41,18.27,193.26
-2.15,-3.98,2.22,32.7,14.36,184.78
-2.37,-4.32,1.98,28.31,25.34,180.33
-3.12,-4.3,1.52,31.97,40.16,182.22
-4.31,-3.7,1.83,40.63,34.42,181
-5.12,-3.34,2.18,48.62,25.46,165.39
-5.87,-2.97,2.84,45.2,17.47,150.39
-6.39,-2.85,2.35,32.09,10.46,140.64
-6.7,-3.33,1.99,30.81,9.73,129.3
-6.47,-3.17,2.23,39.41,8.02,117.41
-6.27,-3.07,2.66,38.44,7.35,119.97
-7.38,-2.79,3.02,33.19,4.85,124.48
-8.92,-2.44,2.69,26.55,-3.38,119.72
-9.67,-2.16,2.2,29.84,-11.06,107.65
-9.29,-2.35,1.97,30.57,-7.1,91.74
-8.59,-2.71,1.82,35.39,2.96,89.6
-9.16,-2.43,1.78,35.27,9.55,95.33
-10.63,-2.36,1.71,37.95,2.11,95.46
-11.67,-2.04,1.66,41.91,-7.53,77.59
-11.51,-2.02,2.02,44.53,-17.1,60.39
-11.44,-1.83,2.12,40.2,-16.55,49.48
-11.49,-1.81,2.44,40.57,-9.11,42.65
-11.91,-1.87,2.62,40.2,-7.04,36.74
-12.24,-1.57,2.88,35.27,-12.16,30.76
-12.22,-1.72,2.47,30.45,-15.82,23.14
-12.16,-1.59,2.34,30.14,-16.55,17.47
-12.51,-1.75,2.26,29.72,-21.37,6.8
-12.78,-1.56,2.53,31.49,-31.79,-4.18
-12.36,-1.42,2.65,28.86,-33.62,-15.15
-11.78,-1.5,2.41,27.52,-27.16,-23.69
-11.43,-1.74,2.64,26.97,-28.14,-27.41
-11.04,-1.73,2.67,22.83,-37.77,-32.29
-10.39,-1.67,2.51,22.22,-40.51,-35.64
-9.75,-1.85,2.32,20.51,-35.27,-39.73
-9.32,-2.03,2.17,21.73,-29.78,-42.1
-8.84,-2.13,2.37,22.83,-30.64,-40.64
-8.53,-2.12,2.27,22.46,-33.14,-37.59
-8.32,-2.1,2.31,22.28,-31.79,-36.92
-8.04,-2.23,2.49,19.96,-28.08,-34.91
-8.19,-2.23,2.67,21.73,-22.71,-35.52
-8.23,-2.17,2.52,19.78,-26.49,-32.29
-8.25,-2.29,2.43,19.41,-34.17,-30.21
-8.04,-2.29,2.38,19.66,-35.09,-27.96
-7.91,-2.27,2.44,20.45,-31.12,-27.17
-8.01,-2.47,2.4,20.2,-25.94,-25.58
-8.21,-2.35,2.51,20.88,-24.11,-24.67
-9.02,-2.85,0.01,17.7,-21.79,-24.12
-8.89,-3.05,1.23,26.91,-17.34,-23.69
-8.8,-2.69,1.32,28.31,-18.81,-24.67
-8.95,-2.67,1.61,24.47,-22.53,-24.06
-9.14,-2.67,1.65,20.27,-29.97,-25.03
-9.1,-2.56,1.71,12.34,-38.75,-25.82
-8.97,-2.88,1.44,11.12,-44.42,-27.41
-9.04,-3.01,1.75,10.45,-48.68,-30.95
-8.87,-2.68,1.34,9.17,-48.14,-33.32
-8.84,-2.9,1.48,8.62,-45.09,-32.71
-8.64,-2.79,1.37,8.56,-45.09,-29.91
-7.79,-2.16,2.79,13.07,-42.53,-16.19
-9.01,-2.88,1.57,7.1,-39.97,-18.99
-8.74,-3.12,1.8,10.45,-30.88,-18.2
-8.97,-3.11,1.68,14.41,-27.89,-21.49
-9.25,-2.91,1.69,16.36,-25.33,-24.97
-9.51,-2.71,1.55,15.57,-23.69,-26.43
-9.99,-2.68,1.37,14.23,-22.95,-26.25
-10.4,-2.86,1.46,15.69,-21.73,-29.6
-11.01,-2.84,1.88,15.33,-24.6,-35.58
-11.56,-2.54,1.91,11.73,-22.89,-43.08
-12.47,-2.36,2.01,3.92,-21.61,-52.78
-13.29,-2.52,1.89,-2.6,-30.51,-68.51
-13.05,-2.91,1.11,-5.1,-42.83,-84.42
-12.66,-3.05,1,2.03,-42.1,-96.86
-12.41,-3.05,1.39,8.44,-33.14,-109.06
-12.24,-2.83,2.01,8.99,-27.53,-119.54
-11.89,-3.04,1.94,4.72,-25.21,-132.04
-11.36,-3.02,1.76,1.91,-23.87,-146.01
-11.19,-2.95,1.59,0.02,-25.27,-162.23
-10.48,-2.76,1.38,-3.15,-26.79,-178.99
-9.49,-3.33,0.97,-5.83,-28.75,-190.21
-8.69,-3.39,0.64,-1.87,-25.7,-195.27
-8.04,-3.79,0.52,2.1,-25.27,-195.21
-7.58,-3.87,0.17,6.36,-27.53,-201.62
-7.13,-3.88,0.01,10.33,-26.73,-206.8
-6.65,-4.01,-0.04,18.56,-30.15,-208.57
-5.97,-4.47,-0.55,25.08,-32.22,-213.2
-5.43,-4.53,-0.35,36.3,-38.68,-215.33
-4.69,-4.47,0.18,39.53,-49.36,-213.02
-4.4,-4.5,0.4,39.17,-60.88,-214.72
-3.85,-4.69,0.52,42.64,-69.42,-214.66
-3.57,-4.95,0.64,46.06,-80.27,-218.81
-3.01,-5.1,1,43.86,-93.99,-224.48
-2.39,-4.92,1.02,40.33,-104.66,-229.85
-1.37,-4.89,0.59,36.61,-105.21,-233.99
-0.5,-4.67,1.09,36.06,-104.9,-228.2
0.11,-5.28,1.05,27.52,-106,-230.64
0.54,-5.64,1.09,26.42,-106.92,-242.96
1.2,-5.34,0.83,28.25,-114.35,-256.13
2.44,-4.81,1.32,32.4,-116.98,-260.76
4.01,-4.72,1.67,28.25,-109.54,-259.97
5.21,-4.67,1.93,19.9,-100.64,-253.99
6.32,-5.05,1.25,20.94,-98.81,-248.75
7.5,-5.07,0.54,28.01,-85.15,-243.02
8.35,-5.08,0.09,37.83,-73.38,-232.77
8.83,-4.83,0.02,46.3,-70.03,-221.98
8.96,-5.15,0.1,56.55,-83.81,-210.21
9.87,-5.08,0.63,65.75,-103.56,-196.43
10.73,-4.76,1.19,63.98,-97.77,-180.46
11.86,-4.89,1.46,58.98,-51.73,-165.15
11.95,-5.51,2.6,51.91,-10.82,-145.88
11.85,-5.94,3.31,48.44,1.01,-131.43
11.88,-6.31,3.76,47.58,-8.56,-123.69
12.58,-6.33,3.75,40.27,-24.36,-112.47
13.42,-6.68,4.1,30.2,-29.97,-98.81
14.6,-6.82,4,17.46,-32.34,-76.31
14.98,-6.75,4.07,9.05,-26.25,-51.74
15.17,-6.57,3.58,3.31,-20.15,-26.19
14.79,-6.27,3.33,-0.77,-17.77,-5.89
14.36,-5.77,3.07,-5.83,-14.36,15.27
13.71,-5.72,2.87,-8.88,-15.51,34.36
12.96,-5.53,2.29,-8.88,-19.42,51.98
12.37,-5.38,2.22,-10.71,-25.03,67.04
12.05,-5.36,1.82,-7.54,-26.55,79.11
11.8,-4.81,2.34,-7.3,-22.04,89.3
12.25,-4.8,2.24,-11.62,-9.6,104.48
12.65,-4.49,2.03,-16.2,4.36,130.52
11.87,-4.14,1.51,-19.86,15.46,156.55
10.54,-4.28,1.43,-21.32,14.12,170.52
9.69,-4.99,1.33,-15.22,4.49,175.03
8.93,-5.13,1.37,-7.23,-2.59,180.58
8.63,-5.04,1.25,1.42,-10.64,194.11
7.95,-5.12,1.38,9.66,-12.89,211.06
6.72,-5.14,1.23,17.64,-6.12,229.36
4.83,-4.93,1.56,23.13,-3.87,239.23
3.08,-4.66,1.51,23.86,-7.83,241.8
2.03,-4.64,1.18,26.61,-6.98,237.53
0.9,-4.79,1.08,27.09,-1.73,229.72
0.61,-4.95,0.76,30.39,13.27,218.44
-0.33,-4.63,1.14,32.83,17.29,224.36
-1.89,-4.24,1.75,22.89,-2.28,220.15
-2.45,-4.49,1.34,18.92,-22.83,215.64
-2.61,-4.75,0.76,24.17,-22.83,204.6
-2.54,-4.39,0.77,37.77,1.44,194.91
-2.93,-3.73,1.4,39.53,22.96,191.8
-4.2,-3.17,1.83,29.53,20.28,188.93
-5.27,-3.39,1.8,16.67,2.9,189.05
-5.96,-3.69,1.42,17.16,-23.69,181.98
-5.79,-3.75,0.73,28.99,-39.29,172.1
-5.27,-3.4,0.66,40.75,-25.76,174.72
-6.06,-2.96,0.87,47.64,0.77,179.97
-7.84,-2.3,1.58,46.06,4.67,177.41
-9.16,-1.73,1.91,34.05,-25.33,161.86
-9.16,-1.86,1.72,24.23,-51.18,145.33
-8.09,-2.73,0.93,33.92,-26,138.38
-8.37,-2.37,0.71,52.58,13.57,144.97
-9.55,-1.18,1.81,54.9,31.56,146.31
-11.28,-0.4,2.34,39.23,23.33,131.25
-11.88,-1.06,2.02,25.14,1.62,114.91
-11.83,-1.4,0.85,32.7,-5.76,107.22
-11.92,-1.28,0.75,42.7,-1.19,103.63
-12.8,-0.58,1.33,46.3,8.69,94.85
-14.02,-0.44,1.92,38.8,2.72,70.82
-14.06,-0.58,1.79,33.5,-10.76,47.04
-13.67,-0.66,1.89,32.03,-23.56,33.02
-13.1,-0.89,1.58,32.46,-25.15,26.07
-13.41,-0.87,2.02,33.44,-23.32,20.94
-13.67,-0.76,2.55,30.2,-31.79,11.07
-13.15,-0.8,2.3,26.18,-37.47,-3.69
-12.42,-0.77,2.32,22.34,-37.1,-18.81
-11.31,-1.05,1.95,21.12,-34.97,-27.9
-10.36,-1.33,1.64,22.28,-34.42,-31.25
-9.57,-1.27,1.66,23.13,-30.45,-30.03
-9.28,-1.35,1.68,23.13,-27.77,-31.13
-9.15,-1.45,1.69,24.11,-28.62,-33.93
-8.97,-1.45,1.76,24.78,-34.6,-35.95
-8.73,-1.38,1.58,22.4,-39.6,-38.45
-8.35,-1.38,1.73,22.03,-36.31,-36.62
-8.24,-1.55,1.84,22.89,-29.72,-32.84
-8.51,-1.68,1.83,21.85,-29.42,-29.48
-8.81,-1.64,2.01,22.7,-35.76,-29.36
-8.76,-1.53,1.98,18.68,-39.54,-30.03
-8.64,-1.49,1.93,18.62,-36,-28.26
-8.61,-1.55,1.92,19.96,-24.6,-24.42
-9.15,-1.43,2.15,18.8,-22.34,-24.73
-9.31,-1.39,2.07,16.36,-31.86,-26.74
-9.1,-1.43,1.85,15.88,-37.28,-29.48
-8.81,-1.55,1.6,16.73,-34.11,-29.06
-8.67,-1.65,1.54,18.13,-28.87,-27.53
-9.49,-1.87,-0.46,24.9,-23.5,-27.29
-9.18,-1.81,1,20.81,-24.66,-20.95
-9.1,-1.65,0.96,18.44,-29.05,-20.82
-8.98,-1.58,1.17,13.44,-25.94,-20.89
-9.26,-1.68,1.09,10.2,-26.49,-21.13
-9.39,-1.74,0.97,7.46,-27.83,-24.3
-9.58,-1.72,1.03,3.86,-32.04,-27.84
-9.42,-2.05,1.21,1.97,-38.87,-30.03
-9.3,-1.9,0.79,3.68,-39.42,-28.39
-9.45,-1.72,0.71,10.57,-32.95,-25.89
-9.74,-1.61,0.83,15.81,-27.1,-25.82
-8.97,-0.58,1.57,19.66,-25.7,-22.84
-10.35,-1.51,0.98,13.38,-32.4,-31.25
-10.51,-1.47,1.02,13.44,-26.49,-33.69
-10.77,-1.94,0.85,15.63,-20.82,-37.84
-11.11,-1.98,0.81,19.23,-24.78,-42.29
-11.36,-1.91,0.64,19.29,-26.55,-46.62
-11.45,-1.89,0.63,23.19,-20.39,-50.88
-11.84,-1.89,0.6,25.39,-14.29,-55.4
-12.18,-1.83,0.56,27.58,-12.4,-62.84
-12.36,-1.87,0.45,24.96,-12.1,-72.47
-12.29,-1.89,0.33,25.94,-10.94,-79.79
-12.39,-1.82,0.6,26.61,-11.19,-87.29
-12.46,-1.82,0.68,24.84,-16.25,-98.93
-12.11,-1.91,0.75,24.84,-19.84,-108.75
-11.77,-1.89,0.57,24.29,-19.66,-120.03
-11.49,-1.94,0.69,25.81,-16.12,-129.85
-11.1,-1.84,0.51,24.84,-12.22,-138.26
-10.79,-2.24,0.33,24.59,-10.76,-147.59
-10.26,-2.29,0.34,24.59,-14.11,-157.96
-9.6,-2.49,0.14,25.39,-19.05,-164.85
-8.88,-2.49,0.02,27.46,-16.06,-168.81
-8.53,-2.65,-0.04,29.29,-17.89,-173.93
-8.44,-3.12,0.01,29.9,-24.29,-179.05
-7.92,-3.44,-0.07,31.3,-36.67,-186.43
-7.45,-3.41,0.06,30.57,-46.79,-191.01
-6.8,-3.61,0.06,30.81,-56.31,-195.21
-6.29,-3.64,0.38,30.33,-61.98,-199.05
-5.58,-3.84,0.46,18.25,-70.57,-204.3
-4.74,-4.57,0.27,12.1,-70.33,-204.05
-4.18,-5.16,-0.06,18.31,-67.04,-207.41
-3.94,-4.92,0.35,23.92,-64.42,-206.01
-3.86,-5.03,0.79,19.11,-67.77,-212.47
-3.19,-5.16,0.59,13.92,-77.53,-217.65
-2.16,-5.52,0.25,11.67,-85.09,-217.9
-1.43,-5.84,0.15,14.66,-90.27,-213.2
-0.26,-6.47,-0.38,24.53,-81,-215.82
0.49,-6.36,-0.27,34.96,-64.23,-215.76
1.01,-6.12,0.43,37.58,-52.65,-205.82
1.62,-5.85,0.45,32.03,-56.18,-191.13
2.99,-6.9,0.28,32.4,-36.12,-179.54
3.87,-7.59,0.57,37.28,3.45,-170.46
3.74,-7.3,1.35,40.14,29.36,-161.07
3.21,-7.16,1.9,39.53,21.8,-150.52
2.79,-7.76,1.65,38.5,-16.31,-141.68
2.86,-8.52,0.85,41,-51.55,-149.42
4.01,-7.81,1.44,45.57,-53.08,-149.6
4.09,-7.21,2.4,38.5,-48.32,-143.02
4.02,-7.81,1.98,38.8,-61.18,-140.4
4.1,-8.52,1.16,46,-76,-144.12
4.85,-8.33,1.23,52.16,-89.66,-141.13
6.51,-8.46,1.6,57.34,-78.26,-140.21
7.64,-8.08,2.91,55.69,-51.49,-125.88
7.4,-8.48,2.94,52.34,-39.23,-111.43
6.72,-9.17,2.28,53.62,-56.61,-106.43
7.15,-9.37,2.06,59.35,-71.73,-110.58
8.05,-8.3,3.28,56.06,-63.75,-107.96
9.05,-8.64,3.68,47.4,-45.51,-92.1
9.2,-9.27,3.85,41.91,-27.16,-78.57
9.19,-9.26,3.85,39.11,-17.65,-64.3
9.19,-8.99,3.93,33.13,-11.98,-53.51
9.25,-9.17,3.81,28.44,-7.83,-43.02
8.89,-8.92,4.14,21.24,-11.67,-33.81
9.1,-9.09,3.62,17.09,-17.34,-27.78
9.24,-8.72,3.74,9.78,-19.48,-15.82
9.43,-9.04,3.55,7.58,-19.48,-3.63
9.11,-8.84,3.45,5.75,-18.44,8.26
8.88,-8.89,3.2,6.67,-13.62,14.72
8.9,-8.54,3.37,4.72,-7.47,23.2
8.85,-8.27,3.32,-2.54,-8.81,34.91
8.87,-8.54,3.18,-6.69,-12.1,48.38
8.94,-8.62,3.29,-8.39,-9.05,64.72
8.6,-8.46,3.39,-12.48,-3.08,81.55
7.8,-8.41,3.24,-18.33,-2.16,95.82
7.2,-8.16,3.02,-23.33,-13.08,103.26
6.82,-8.1,2.55,-24.12,-27.16,110.45
6.86,-8.06,2.12,-18.03,-35.76,115.58
6.88,-7.89,1.72,-10.83,-35.39,120.33
6.42,-7.57,1.9,-4.31,-37.83,128.87
5.88,-7.14,2.17,-5.16,-55.21,137.16
5.7,-7.24,1.65,-0.53,-58.01,143.26
5.14,-7.58,1.85,3.56,-44.17,158.5
3.92,-7.45,1.76,18.19,-11.49,170.03
2.26,-7.1,1.28,33.44,22.59,168.14
1.07,-6.42,1.46,47.03,30.64,163.63
-0.22,-6.1,1.81,43.01,16.5,161.13
-0.77,-5.36,2.42,15.02,-6.31,169.72
-1.37,-5.47,2.02,-6.75,-21.43,168.32
-1.78,-5.86,0.92,-7.9,-10.45,160.09
-2.12,-5.94,0.75,-4.73,-3.08,153.63
-2.52,-5.84,0.85,-7.9,1.99,159.05
-3.1,-5.87,0.86,-8.27,6.74,161.49
-4.07,-4.7,1.4,-14.67,-3.56,160.33
-4.83,-4.52,1.37,-24.49,-22.22,149.3
-4.87,-5.1,0.32,-21.08,-22.1,138.99
-4.46,-5.3,0.16,-9.8,-14.17,132.65
-4.61,-5.27,-0.14,3.74,-7.65,129.78
-4.88,-4.91,-0.02,20.33,-7.65,126.67
-5.32,-4.29,0.43,24.29,-19.78,128.26
-6.01,-3.32,0.47,20.57,-18.08,135.76
-6.99,-2.87,0.37,22.52,-9.17,142.77
-7.93,-2.86,0.12,18.5,-10.82,139.05
-8.2,-2.66,-0.11,15.69,-25.94,132.71
-8.49,-2.65,-0.22,14.72,-35.64,127.22
-8.81,-2.48,-0.28,17.89,-34.78,129.36
-9.54,-2.22,-0.17,24.11,-30.33,125.64
-10.1,-1.97,0.01,25.94,-31.79,117.04
-10.04,-2.01,0.21,25.69,-36.49,112.04
-9.87,-1.92,0.07,27.83,-40.88,107.53
-9.85,-1.57,0.15,27.09,-30.94,106.74
-10.29,-1.24,-0.38,29.11,-12.89,113.93
-11.51,-1.08,-0.49,34.47,-6.92,108.2
-12.51,-0.61,-0.21,31.18,-16.12,92.65
-12.5,-0.56,-0.07,31.91,-37.1,81.55
-12.36,-0.61,0.1,35.94,-45.76,71.86
-11.99,-0.39,0.44,37.52,-37.16,62.96
-11.89,-0.22,0.61,34.78,-24.29,55.46
-12.03,-0.4,0.32,36,-22.22,46.55
-11.95,-0.39,0.33,39.35,-30.58,36.07
-11.55,-0.08,0.53,39.11,-36.49,29.6
-11.72,0.03,0.86,38.68,-31.86,25.58
-12.28,0.31,1.29,37.22,-26.31,15.58
-12.52,0.28,1.64,32.83,-33.56,3.32
-11.98,-0.01,1.4,30.14,-43.26,-10.4
-11.13,0.1,1.57,30.63,-45.7,-19.67
-10.33,0.02,1.39,29.72,-41.31,-23.57
-9.73,-0.25,1.5,28.99,-38.32,-23.93
-9.46,-0.25,1.52,27.34,-38.08,-25.34
-9.22,-0.39,1.47,24.53,-38.81,-25.7
-9.02,-0.33,1.45,23.38,-36.86,-24.67
-9.25,-5.1,0.08,20.78,20.81,12.46
-7.95,-4.91,0.49,25.24,21.36,13.8
-8.05,-5.02,0.38,24.02,16.18,14.96
-8.37,-4.69,0.75,16.94,8.62,10.14
-8.39,-4.7,0.64,7.92,-1.87,4.29
-8.06,-4.81,0.54,3.47,-3.7,4.66
-8.25,-4.87,0.47,0.66,-1.75,6.36
-8.18,-4.26,0.6,-5.07,-3.88,6.24
-8.47,-4.94,0.59,-5.5,-0.47,5.63
-8.14,-4,2.22,-9.4,10.39,9.05
-8.42,-4.76,0.19,-8.55,3.31,9.35
-8.36,-5.17,0.55,1.09,7.21,9.66
-8.3,-5.01,0.19,10.66,10.87,5.94
-8.43,-4.76,0.58,11.52,10.32,3.25
-8.34,-4.85,0.36,11.09,10.32,4.84
-8.26,-4.79,0.57,7.98,10.57,6.42
-8.45,-4.85,0.52,7,13.8,6.67
-8.62,-4.72,0.54,6.58,16.3,5.69
-8.71,-4.85,0.44,7.25,16.67,2.4
-8.7,-5.08,0.39,10.24,17.82,-2.17
-8.65,-5.09,0.49,9.2,18.37,-5.77
-8.87,-5.08,0.59,6.88,17.58,-11.81
-9.08,-4.25,0.39,-0.92,20.45,-12.54
-9.06,-7.23,0.84,-8.91,19.35,6.97
-9.08,-5.22,-0.32,2.19,32.52,-6.99
-9.63,-4.91,-0.18,11.64,31.3,-9.67
-10.15,-5.37,0.06,13.22,27.09,-19.25
-10.61,-6.3,-0.67,28.95,25.81,-34.19
-10.01,-5.1,-0.73,30.72,32.58,-50.77
-10.68,-4.9,0.4,21.64,22.4,-48.64
-10.56,-4.77,-0.25,16.21,23.74,-53.45
-10.77,-4.99,-0.55,16.09,25.63,-59.31
-10.83,-5.29,-0.88,18.16,27.15,-72.48
-10.91,-5.26,-0.9,24.08,21.6,-87.29
-10.71,-5.31,-1,28.34,16.79,-107.17
-10.29,-5.37,-0.92,34.93,13.68,-128.09
-9.85,-5.3,-0.83,37.13,17.64,-145.34
-9.24,-4.98,-0.72,35.05,13.31,-150.53
-8.9,-5.73,-0.24,41.64,9.47,-155.1
-8.21,-5.93,0.08,49.69,8.56,-164.43
-7.75,-5.51,0.09,43.71,3.56,-172.17
-7.15,-5.63,0.27,38.1,5.87,-188.45
-6.71,-5.74,0.13,39.08,-5.77,-198.45
-5.43,-6.01,0.47,37.43,-6.5,-205.89
-4.99,-6.21,0.79,32.86,-14.31,-202.48
-4.22,-6.01,0.39,34.81,-14.92,-201.32
-3.68,-6.31,0.98,42.06,-13.46,-198.88
-2.91,-6.12,0.94,41.64,-19.43,-186.93
-2.17,-6.47,0.87,37.61,-16.44,-182.54
-0.86,-6.64,0.73,37.13,-13.58,-177.6
-0.08,-6.45,1.31,28.16,1.79,-169.61
-0.16,-6.7,1.37,26.58,3.92,-154.61
-0.27,-7.08,0.72,24.56,-0.71,-156.44
0.24,-7.18,0.44,31.03,-9.68,-164.18
0.81,-9.09,1.01,54.63,-18.58,-180.34
2.29,-6.94,1.14,44.02,-7.36,-181.44
3.14,-6.19,1.59,34.99,5.32,-151.07
2.18,-6.7,1.77,28.83,-10.1,-135.04
2.59,-6.99,0.49,34.75,-21.14,-137.17
3.39,-6.95,0.61,37.92,-7.36,-137.96
4.27,-6.66,1.06,36.03,23.43,-137.96
4.77,-6.75,1.58,29.87,19.23,-127.6
4.57,-6.72,0.88,31.39,-9.13,-113.64
4.72,-6.72,0.38,36.09,-29.61,-119.49
5.56,-6.38,0.41,49.38,-21.81,-121.75
6.58,-5.83,0.85,53.28,-2.85,-117.78
6.64,-5.41,1.5,45.72,10.81,-113.03
7,-5.6,1,41.58,12.28,-102.05
7.32,-5.98,0.42,48.41,9.35,-92.42
7.82,-6.43,0.41,57.43,5.51,-90.04
7.88,-6.33,0.78,61.52,-6.26,-94.43
8.28,-5.91,1.06,66.33,-6.32,-98.15
8.71,-5.78,1.1,69.93,4.04,-93.33
8.95,-6,1.31,66.82,15.02,-86.68
8.85,-6.59,2.41,56.94,15.45,-78.09
8.84,-6.73,3.09,57.13,4.65,-75.53
9.58,-7.32,3.53,59.08,1.18,-77.54
10.12,-7.26,3.41,54.63,19.29,-79.92
10.91,-7.3,4.13,45.78,28.25,-71.44
11.36,-7.55,4.31,35.48,18.92,-56.87
11.5,-7.37,4.37,27.55,15.08,-45.53
12.17,-7.14,4.44,16.64,11.67,-32.97
12.81,-7.06,4.22,8.47,21.36,-16.26
12.64,-6.95,4.16,2.67,26.12,1.97
12.59,-7,3.77,1.15,23.07,18.5
12.29,-6.68,3.3,1.27,18.68,33.38
11.98,-6.36,3.06,0.36,19.35,44.72
12.17,-6.28,3.1,-0.37,25.2,54.05
12.45,-5.85,3.05,-7.26,36.18,71.18
12.27,-5.52,3.49,-15.07,44.65,91.97
11.63,-5.63,3.18,-20.92,48.74,108.98
10.9,-5.73,2.86,-20.98,48.13,122.15
10.51,-5.84,2.89,-18.42,50.99,131.97
10.28,-5.53,2.79,-15.62,48.01,147.4
9.89,-5.54,2.88,-21.11,38.43,160.87
9.19,-5.44,3.07,-24.7,28.43,173.31
8.97,-5.76,2.78,-30.07,24.78,177.03
8.26,-5.75,2.53,-32.51,37.28,183.74
7.35,-5.64,2.03,-31.9,41.67,194.53
5.95,-6,1.81,-26.53,27.28,200.63
5.25,-6.25,1.57,-11.59,4.47,210.26
4.87,-6.16,1.8,-2.57,0.02,214.84
3.89,-5.67,2.21,-3.97,7.15,222.46
3.27,-5.56,1.8,0.24,21.3,224.23
2.51,-5.61,1.62,1.52,25.63,225.75
2.09,-5.4,1.29,4.99,29.23,231.61
0.91,-4.86,0.95,10.78,28.43,243.31
-0.33,-4.84,1.43,12.55,33.74,247.95
-1.67,-4.39,1.45,8.95,25.57,238.19
-2.24,-4.32,1.35,4.38,13.43,222.09
-1.96,-4.29,0.45,-4.64,9.96,210.57
-1.73,-4.27,0.34,0.91,9.65,226.3
-2.55,-4.08,0.34,6.39,37.58,231.97
-4.45,-3.12,0.96,1.76,38.13,225.2
-5.67,-2.75,1.32,-6.9,28.31,204.11
-6.4,-3.02,0.53,-8.3,27.09,185.26
-6.59,-3.25,0.28,-0.56,27.52,175.45
-6.6,-3.5,0.22,9.14,18.31,169.17
-6.69,-3.29,0.1,13.34,1,172.89
-7.32,-3.37,0.21,15.66,-3.82,176.91
-9.02,-3.01,0.98,17.61,3.01,158.92
-9.93,-2.7,1.23,14.5,1,139.23
-10.23,-3.47,0.9,14.93,-9.86,122.76
-9.82,-3.75,0.59,21.7,-19.25,119.35
-9.81,-4.01,0.44,30.78,-29.98,122.28
-10.15,-3.78,0.79,38.65,-24.13,122.76
-11.07,-3.13,1.4,36.33,-16.5,116.24
-12.41,-3.26,1.84,34.87,-9.55,101.24
-12.72,-3.22,2.4,38.95,-22.05,77.34
-11.7,-3.29,2.04,37,-34.07,60.2
-10.19,-3.77,1.74,40.48,-26.57,53.44
-9.55,-3.29,1.88,40.36,-7.05,62.52
-10.57,-2.82,2.19,41.33,0.32,69.05
-11.67,-2.53,3.07,37.19,3.07,58.31
-12.04,-2.53,3.03,31.82,-2.48,35.02
-11.52,-2.66,2.81,31.64,-8.58,12.95
-10.79,-2.57,3.18,29.2,-14.98,5.63
-10.04,-2.65,2.91,26.21,-16.08,7.22
-10.01,-2.98,2.96,26.33,-8.52,9.41
-10.02,-3.18,2.94,29.26,-2.66,5.08
-7.97,-5.62,0.07,30.54,34.96,15.08
-8.17,-4.87,1.38,25.78,33.43,15.69
-8.03,-5,1.37,19.81,23.98,12.4
-7.97,-4.87,1.28,14.75,14.9,12.03
-8.23,-5.02,1.38,9.08,9.04,8.74
-8.04,-5.07,1.49,2.74,3.43,8.01
-8.28,-4.91,1.56,-5.68,-4.07,5.51
-8.34,-4.78,1.49,-11.72,-11.32,4.05
-8.04,-4.72,1.53,-13.24,-9.07,6.73
-9.75,-5.75,3.07,-18.73,-6.2,9.47
-8.25,-5.26,1.46,-8.48,-4.07,6.3
-7.89,-5.5,1.7,4.26,8.07,2.77
-8.15,-5.09,1.28,12.55,14.59,3.62
-8.39,-4.98,1.43,18.95,19.1,3.01
-8.6,-4.91,1.36,21.58,14.47,2.1
-8.79,-4.51,1.3,16.82,11.73,2.4
-9.11,-4.43,1.43,6.94,12.15,1.06
-10,-4.35,1.33,3.22,13.31,-4.73
-10.67,-4.32,1.21,-0.62,6.06,-13.03
-11.17,-4.5,0.9,0.78,-2.48,-24.31
-11.21,-4.35,1.09,4.32,-5.04,-38.33
-11.25,-4.12,1.37,4.63,3.62,-49.67
-11.54,-4.29,1.42,3.71,13.31,-62.78
-11.79,-4.24,1.56,0.42,15.32,-80.4
-11.78,-4.38,1.36,-1.47,12.28,-98.76
-11.11,-4.64,1.09,4.5,8.56,-114.49
-10.28,-4.95,0.95,10.48,14.65,-128.21
-10.06,-4.58,0.92,12.43,13.31,-139.55
-9.37,-4.77,1.11,13.59,7.58,-149.73
-8.37,-4.97,0.84,12.8,4.47,-156.62
-7.91,-4.81,0.75,11.52,3.13,-161.68
-7.33,-4.79,0.92,11.21,1.42,-164.98
-6.72,-5.27,0.54,20.36,0.57,-167.9
-5.9,-5.43,0.75,27.31,11.85,-173.09
-5.34,-5.39,1.12,23.95,5.02,-173.27
-4.92,-5.73,0.9,21.33,-3.46,-177.6
-4.78,-5.22,1.15,13.16,-6.02,-179.12
-4.3,-5.6,1.46,12.06,-17.3,-179
-3.73,-5.82,0.71,16.33,-27.48,-191.87
-2.76,-5.88,0.64,26.33,-26.26,-199.43
-1.62,-5.99,0.75,27.92,-26.57,-207.41
-0.58,-5.92,0.99,21.52,-38.15,-210.1
0.62,-5.73,0.87,19.2,-33.52,-211.68
0.92,-5.88,1.24,23.1,-34.92,-212.11
1.73,-5.83,1,23.34,-38.27,-210.59
3.19,-6.36,0.83,25.05,-28.33,-214
4.78,-6.13,1.05,23.34,-16.14,-201.62
5.27,-5.98,0.9,31.39,-13.76,-181.32
5.01,-5.91,0.94,34.63,-24.37,-173.03
5.3,-5.9,0.89,32.13,-38.7,-174.18
6.77,-5.79,0.69,29.81,-22.85,-175.04
8.54,-6.28,0.91,29.56,7.89,-166.87
8.91,-6.48,0.84,34.69,24.53,-147.66
8.23,-6.69,0.29,49.02,11.79,-133.82
8.32,-6.53,0.1,53.71,-9.74,-130.46
8.75,-6.35,0.23,61.03,-15.59,-128.76
9.48,-5.99,1.1,60.42,-3.21,-126.44
10.64,-6.45,1.11,59.08,7.95,-119
10.99,-6.39,2.34,53.59,22.21,-99.18
11.07,-7.12,2.91,50.84,21.3,-77.11
10.67,-7.48,2.86,50.36,24.17,-59.86
9.91,-7.4,3.44,49.63,20.08,-50.95
9.54,-7.56,3.62,46.09,3.74,-49.18
10.65,-7.78,3.72,41.82,7.82,-52.36
11.64,-7.78,4.51,27.13,10.93,-35.1
11.85,-8.01,4.27,18.89,9.78,-14.31
11.59,-7.74,4.15,12.8,11.67,3.44
11.65,-7.84,3.59,9.75,13.92,13.31
12.05,-7.69,3.71,6.39,17.03,24.9
12.31,-7.59,3.26,4.87,25.93,39.96
11.96,-7.26,3.13,4.38,30.81,55.02
11.83,-6.95,2.7,3.16,35.2,68.8
11.97,-6.6,2.67,1.64,35.57,85.69
12.07,-6.38,2.51,0.11,44.04,105.08
11.69,-5.96,2.43,2.67,47.4,124.53
11.07,-6.07,1.97,8.04,41.06,140.87
10.67,-5.7,1.56,16.45,36.24,153.13
10.31,-5.35,1.67,20.36,35.81,168.74
10.4,-5.24,1.88,21.7,46.24,186.73
9.42,-4.93,1.88,22.43,56.12,204.47
8.04,-4.45,2.09,21.64,45.51,221.18
6.47,-4.56,2.32,19.44,19.23,227.58
5.3,-4.78,2.54,22.25,16.73,226.91
4.2,-4.76,3.05,26.45,22.76,226.06
3.19,-4.42,3.28,28.59,32.03,227.82
2.16,-4.42,3.39,21.88,25.57,230.63
1.37,-4.78,2.98,21.21,18.37,239.41
0.44,-4.72,2.56,14.26,19.47,247.28
-0.8,-4.37,2.71,13.34,25.26,244.47
-1.77,-4.11,2.73,15.3,27.7,227.15
-2.66,-3.94,3.31,12.61,25.14,211.18
-2.69,-3.85,3.3,1.27,25.39,210.14
-3.46,-4.14,2.63,-1.47,17.95,214.41
-3.41,-4.43,1.81,-1.78,2.03,211.48
-3.77,-4.73,2.03,12.13,-9.13,217.4
-4.44,-4,1.89,22.06,19.78,211.61
-6.1,-3.26,2.65,24.93,32.15,200.26
-6.91,-3.11,2.64,18.41,7.21,180.81
-6.85,-3.46,2.6,13.04,-9.49,176.54
-6.68,-3.77,2.16,17.74,3.98,179.59
-7.24,-3.54,2.08,27.67,19.35,180.75
-8.14,-3.24,1.82,36.33,2.09,178.01
-8.43,-3.22,1.97,38.04,-18.52,168.68
-8.49,-3.1,2.29,38.34,-17.54,159.96
-8.18,-2.77,2.51,39.08,3.68,153.98
-9.58,-2.43,3.05,36.82,3.86,143.19
-10.05,-2.38,2.98,35.42,-0.22,134.17
-10.05,-2.41,2.88,38.47,9.04,125.57
-10.81,-2.3,3.47,42.61,21.85,119.35
-11.14,-1.89,3.77,40.66,23.8,114.05
-11.94,-1.5,3.75,31.7,26.67,101.3
-12.53,-1.25,3.75,29.08,33.56,79.29
-12.94,-1.84,3.67,28.71,30.87,58.31
-12.61,-1.86,3.59,28.28,20.26,41.73
-12.03,-1.88,3.44,26.76,9.1,31.73
-11.18,-1.84,3.43,27.61,15.93,23.5
-10.96,-1.68,3.46,25.97,22.21,16.36
-10.68,-1.98,3.23,25.54,21.48,9.6
-10.42,-1.9,3.21,24.69,12.46,4.35
-9.73,-2.02,3.2,22.98,1.06,0.14
-9.1,-1.96,3.24,24.38,3.8,-3.64
-8.52,-2.01,3.3,21.94,16.12,-3.03
-8.61,-2.37,3.26,21.94,23.49,-4.73
-8.66,-2.33,3.43,19.02,20.93,-3.7
-8.55,-2.4,3.07,19.69,15.99,-1.08
-8.42,-2.39,3.03,20.42,12.52,-0.22
-8.19,-2.35,3.07,20.3,14.1,0.94
-8.45,-2.08,3.28,19.32,17.89,0.08
-8.29,-2.49,3.33,17.19,19.78,-1.14
-8.39,-2.5,3.13,16.45,16.54,-0.16
-8.24,-2.57,3.1,17.8,15.87,1.49
-8.33,-2.44,3.01,15.54,18.49,2.34
-8.51,-2.39,3.17,16.76,17.34,0.39
-8.4,-2.41,3.15,13.1,13.19,-0.65
-8.42,-2.31,3.07,13.34,11.36,1.06
-8.32,-2.32,3.05,15.3,13.43,2.7
-8.42,-2.31,3.11,12.86,17.21,1.97
-8.74,-2.25,2.86,12,20.51,-0.28
-8.75,-2.47,2.81,13.77,17.03,-3.45
-8.64,-2.27,2.8,14.44,13.01,-3.39
-9.03,-3.11,1.3,32.31,30.32,-2.17
-8.68,-3.11,1.98,33.22,25.57,5.57
-8.58,-3.11,2.06,24.56,12.76,6.85
-8.43,-2.96,2.14,14.87,9.53,6.85
-8.36,-3.13,2.06,8.1,11.85,7.77
-8.62,-3.12,1.96,0.17,10.08,6.73
-8.96,-3.24,1.91,-1.41,4.53,1.24
-8.83,-3.37,2.24,-2.75,-1.93,-4.61
-8.61,-3.11,2.18,-1.59,-1.99,-6.2
-8.58,-2.89,2.39,2.43,2.89,-2.3
-7.6,-1.42,1.77,-2.57,14.78,8.25
-8.71,-3.29,2.01,-0.07,15.2,9.66
-8.81,-3.26,2.39,-0.19,17.52,10.69
-9.01,-3.47,1.86,3.83,18.98,7.89
-8.95,-3.27,1.95,7.43,20.93,6.55
-9.05,-3.19,1.91,9.14,25.63,8.01
-9.4,-3.26,2.02,10.72,27.89,6.24
-9.61,-2.82,2,7,25.99,5.27
-9.8,-3.04,1.9,4.38,22.52,2.64
-9.68,-2.83,1.58,4.2,23.25,1.06
-9.94,-2.91,1.44,4.87,24.35,-2.11
-10.3,-2.83,1.28,6.94,25.51,-9.19
-10.51,-2.75,1.5,8.71,24.78,-16.56
-10.79,-2.68,1.2,9.5,26.97,-24.98
-11.14,-2.81,0.95,14.02,31.91,-35.1
-11.48,-2.71,0.8,18.41,33.31,-45.53
-11.81,-2.71,0.92,20.78,25.26,-55.34
-11.82,-2.64,0.91,20.91,7.76,-68.82
-11.33,-2.71,0.76,23.47,-0.16,-79.79
-11.05,-2.79,0.84,26.45,5.26,-89.49
-10.95,-2.79,1.14,29.99,12.95,-103.21
-10.78,-2.79,1.47,31.7,13.56,-114
-10.5,-2.94,1.44,33.65,9.59,-121.07
-10.09,-3.17,1.75,30.6,9.78,-129.85
-10.04,-3.19,1.74,29.69,13.07,-142.72
-9.63,-3.19,1.95,27.74,11.97,-155.1
-9.08,-3.46,2.09,24.44,3.56,-164.37
-8.08,-3.68,1.8,22.98,0.26,-168.63
-7.42,-4.21,1.85,22.37,-2.79,-172.35
-6.9,-4.31,1.8,21.58,-4.74,-175.89
-6.21,-4.41,1.85,21.39,-2.24,-182.42
-5.75,-4.13,1.75,21.52,-3.7,-187.48
-5.2,-4.17,2,14.56,-11.63,-190.83
-4.77,-4.37,1.94,9.38,-26.02,-195.16
-3.88,-4.79,1.71,6.15,-29.37,-204.31
-2.98,-4.85,1.51,10.85,-24.92,-213.7
-2.07,-4.86,1.35,17.8,-15.59,-215.46
-1.49,-4.67,1.54,14.63,-17.05,-205.95
-0.98,-4.86,1.76,9.08,-29.25,-200.34
0.06,-5.58,0.86,10.72,-34.61,-201.99
1.35,-6.21,0.83,19.44,-12.48,-203.33
1.75,-5.79,1.45,30.72,10.75,-197.9
1.69,-5.75,1.62,31.82,8.19,-185.28
1.66,-6.4,1.12,35.05,-11.69,-181.2
2.64,-6.49,0.93,36.45,-16.2,-183.27
3.67,-6.58,1.44,39.08,-10.29,-179.98
4.23,-6.89,1.69,43.53,-8.09,-175.71
4.87,-6.99,1.65,49.56,-11.08,-172.05
5.64,-6.99,1.7,54.38,-7.42,-166.01
6.05,-6.8,2.22,54.69,-3.94,-163.45
6.78,-6.84,2.34,54.69,5.32,-161.93
7.23,-6.9,2.62,57.43,3.98,-154.18
8.05,-7.16,2.44,55.11,-6.57,-149.61
9.7,-6.85,2.3,55.97,12.76,-134.92
9.8,-7.12,2.69,55.78,25.75,-115.95
9.73,-7.21,2.38,59.87,30.99,-100.46
9.06,-7.39,2.97,63.95,27.15,-94.43
9.11,-6.92,3.16,63.65,8.86,-92.66
10.08,-6.97,3.33,60.3,2.89,-88.39
11.19,-6.63,4.39,50.05,6.85,-71.56
11.68,-6.9,4.81,40.84,17.34,-47.54
11.05,-7.35,4.95,31.27,18.98,-28.27
10.79,-7.41,4.85,25.66,17.52,-19.49
10.65,-7.36,4.85,19.75,12.95,-11.26
10.94,-7.41,4.67,17.74,13.8,-5.95
10.83,-7.18,4.54,15.36,12.7,4.96
10.87,-7.12,4.18,9.93,12.15,15.45
10.53,-7.04,4.41,1.58,9.1,31.36
10.6,-6.98,4.05,-4.34,8.19,42.7
10.41,-7.01,3.85,-4.46,14.1,54.96
9.77,-7.24,3.85,-5.19,11.79,66.55
9.27,-7.22,3.78,-2.51,2.34,70.02
9.41,-7.17,3.59,0.11,-2.85,75.27
9.63,-7.01,3.65,1.64,0.2,85.81
9.46,-6.73,3.64,-0.01,5.26,96.42
9.56,-6.54,3.58,-1.53,11.54,104.9
9.66,-6.42,3.41,-1.84,16.91,117.4
9.45,-6.44,3.38,-0.25,20.08,132.46
8.9,-6.37,3.13,1.52,25.08,149.11
7.81,-6.28,3.16,5.85,21.73,162.89
7.24,-6.14,2.68,11.76,23.01,169.65
6.94,-5.76,2.81,17.06,32.82,171.12
6.42,-5.59,2.85,18.47,43.37,167.09
5.68,-5.65,3.23,20.17,31.97,170.87
5.35,-5.8,3.4,12.61,20.02,188.31
4.46,-5.87,2.96,7.55,21.48,204.23
3.6,-5.53,2.68,14.63,29.53,213.07
2.85,-5.05,2.48,17.61,22.7,209.53
2.42,-5.11,2.4,18.04,12.4,212.58
2.04,-5.32,2.35,17.37,16.79,218.92
1.21,-5.1,2.32,22.86,28.56,230.2
-0.42,-4.39,2.36,22.31,19.04,236.24
-1.47,-4.03,1.88,19.02,10.51,237.21
-2.38,-4.28,1.66,19.81,14.1,229.59
-3.22,-4.11,2.01,16.88,20.69,219.47
-2.85,-3.54,1.67,24.81,37.95,212.46
-3.41,-2.95,2.2,19.32,33.8,217.34
-4.3,-2.96,2.23,13.65,7.15,227.76
-4.77,-3,1.58,13.77,-9.92,226.67
-5.01,-2.45,1.52,23.28,-3.76,219.78
-5.08,-2.23,1.83,33.22,35.51,201.85
-6.04,-1.72,2.5,35.97,65.08,198.25
-7.92,-1.55,2.45,29.56,48.43,202.52
-9.15,-1.69,2.44,32.25,-1.5,202.28
-8.9,-1.69,2.21,40.05,-45.71,197.03
-8.01,-1.88,2.38,45.91,-44.49,184.35
-8.2,-1.13,3.31,45.11,4.17,166.79
-9.55,-0.45,4.06,40.42,42.52,152.46
-10.55,-0.49,3.95,35.66,28.13,147.58
-11.05,-0.95,3.32,33.65,-13.52,150.81
-10.17,-1.2,2.35,40.36,-14.92,152.95
-10.32,-0.32,2.68,47.19,40.87,138.68
-11.68,0.6,3.47,45.3,97.7,115.63
-13.53,0.45,4.05,41.03,89.71,98.62
-14.12,0.56,3.98,32.19,30.32,86.55
-13.15,0.27,3.59,30.48,-2.91,76.48
-12.11,0.2,3.2,35.6,12.82,62.77
-12.02,0.45,3.73,35.42,40.2,49.9
-12.3,0.55,3.84,31.76,51.73,37.03
-12.65,0.4,3.89,26.15,36.91,26.67
-12.3,0.17,3.61,19.32,8.86,17.4
-11.56,-0.22,3.2,20.84,-5.83,8.99
-10.72,-0.13,3.11,21.45,-3.21,3.31
-9.75,-0.41,2.75,22.55,19.17,-2.66
-9.86,-0.26,3.05,24.08,35.08,-5.65
-9.79,-0.52,3.05,21.21,26.54,-7.05
-9.6,-0.48,2.84,20.11,7.4,-6.26
-9.22,-0.58,2.41,18.28,-3.94,-6.5
-8.6,-0.5,2.4,20.11,7.76,-7.78
-8.34,-0.54,2.58,23.28,22.7,-7.84
-9.72,-1.45,2.16,28.71,18.86,4.9
-9.18,-1.35,2.11,26.27,21.97,2.22
-8.85,-0.92,2.11,21.21,21.18,3.13
-8.71,-1.13,2.45,12.49,16.24,6.06
-8.84,-1.23,2.41,4.38,11.06,10.51
-9.12,-1.19,2.09,-1.29,7.82,5.51
-8.87,-1.56,2.01,-1.9,4.1,-1.62
-8.76,-1.75,1.91,-1.53,4.41,-9.49
-8.84,-1.2,2.15,-0.13,6,-10.71
-9.19,-0.75,2.11,0.11,4.47,-8.21
-8.95,-0.91,2.08,6.15,7.7,-0.1
-9.76,1.53,2.67,-0.5,2.4,4.84
-9.3,-1.49,2.17,6.94,9.17,4.05
-8.97,-1.42,2.25,8.71,16.18,1.12
-8.98,-1.23,2.25,10.66,15.93,1.49
-8.98,-1.4,2.03,9.99,13.56,4.29
-9.06,-1.56,1.81,14.5,11.85,2.03
-8.91,-1.45,1.9,17.19,14.9,1.42
-8.97,-1.42,2.08,16.7,18.86,1.18
-9.15,-1.19,2.14,16.45,19.29,-0.71
-9.26,-1.26,2.06,15.11,14.35,-1.26
-9.17,-1.39,1.98,14.44,11.67,-2.05
-8.98,-1.31,1.88,14.99,16.18,-2.84
-9.12,-1.34,2.07,15.6,19.96,-2.11
-9.41,-1.34,1.91,14.75,20.63,-2.78
-9.66,-1.28,1.75,17.13,17.15,-6.2
-9.51,-1.47,1.73,16.33,12.52,-7.78
-9.38,-1.29,1.83,17.19,17.21,-8.09
-9.59,-1.36,1.8,17.19,24.17,-8.27
-10.14,-1.38,1.63,17.13,31.48,-10.4
-10.48,-1.49,1.76,18.16,29.1,-13.76
-10.69,-1.68,1.74,17.43,16.42,-18.58
-10.49,-1.86,1.72,17.49,12.58,-21.75
-10.67,-1.81,1.95,17.13,24.71,-21.44
-11.56,-1.56,1.89,16.27,40.75,-24.98
-12.59,-1.07,1.94,15.3,47.21,-34.55
-13.03,-1.25,1.67,13.1,39.65,-47.84
-12.91,-1.12,1.31,13.89,27.82,-61.38
-12.19,-1.01,0.9,15.24,23.37,-73.03
-11.98,-0.91,0.93,17.19,21.85,-81.87
-11.76,-0.98,0.78,20.48,22.34,-94.86
-11.53,-0.84,0.95,24.44,21.54,-106.5
-11.34,-1.04,1,24.69,19.53,-120.65
-11.21,-0.91,0.97,23.95,13.37,-132.29
-11.16,-1.23,0.79,24.32,10.75,-142.54
-10.78,-1.65,0.87,24.5,8.62,-153.45
-10.56,-1.84,0.83,27,12.95,-164.98
-10.6,-1.92,1.17,29.81,11.67,-177.54
-10.39,-1.89,1.73,30.66,1.48,-191.93
-9.91,-1.97,1.7,25.78,-15.59,-207.96
-8.71,-2.3,1.04,26.7,-26.44,-221.99
-7.34,-2.87,0.79,32.13,-25.35,-227.23
-6.48,-3,0.94,38.28,-16.81,-228.02
-5.8,-3.04,1.38,37.31,-18.03,-229.55
-5.19,-3.37,1.36,39.26,-29.13,-237.6
-4.19,-3.53,1.22,41.15,-32.72,-244.24
-2.77,-3.48,1.37,39.44,-33.03,-243.21
-1.56,-3.82,1.32,40.6,-24.86,-237.17
-0.92,-4.23,1.31,44.69,-22.18,-231.74
-0.38,-4.26,0.97,47.49,-24.31,-230.28
0.35,-4.46,0.72,51.09,-25.41,-233.94
1.47,-4.79,0.96,54.32,-13.58,-235.89
2.35,-4.88,1.3,57.13,0.02,-229.18
2.7,-5.06,1.71,56.58,-5.16,-215.83
2.85,-5.42,2.21,53.71,-22.72,-206.5
3.69,-5.82,2.3,55.78,-30.29,-201.99
4.22,-5.74,2.8,59.08,-28.27,-197.17
4.8,-5.47,2.77,57.67,-30.83,-194.79
5.57,-5.16,2.95,53.16,-25.71,-195.04
6.6,-5.03,2.99,49.2,-21.02,-187.84
